TimeStamp,AccX,AccY,AccZ,GyrX,GyrY,GyrZ,MagX,MagY,MagZ,Roll,Pitch,Yaw,Qw,Qx,Qy,Qz
8694271.000000,0.004,-0.032,1.009,0.05,0.14,-0.00,-24.04,29.71,-22.63,-0.11,-1.92,-81.89,0.755,-0.013,0.010,-0.655
8694281.000000,0.002,-0.034,1.007,-0.07,0.08,-0.04,-24.88,30.08,-22.25,-0.11,-1.92,-81.89,0.755,-0.013,0.010,-0.655
8694292.000000,0.002,-0.034,1.013,-0.05,-0.02,-0.04,-24.13,29.81,-22.08,-0.11,-1.92,-81.89,0.755,-0.013,0.010,-0.655
8694301.000000,0.003,-0.035,1.013,0.03,0.16,-0.02,-24.08,30.23,-22.13,-0.11,-1.92,-81.89,0.755,-0.013,0.010,-0.655
8694311.000000,0.003,-0.035,1.006,-0.05,0.14,0.04,-24.18,29.77,-22.54,-0.11,-1.92,-81.89,0.755,-0.013,0.010,-0.655
8694321.000000,0.002,-0.035,1.007,-0.05,0.10,0.02,-24.18,29.77,-22.54,-0.11,-1.92,-81.89,0.755,-0.013,0.010,-0.655
8694331.000000,0.001,-0.035,1.009,-0.05,0.16,-0.00,-24.23,29.89,-22.17,-0.11,-1.92,-81.89,0.755,-0.013,0.010,-0.655
8694341.000000,0.003,-0.031,1.009,-0.03,0.18,-0.08,-24.13,30.04,-22.63,-0.11,-1.92,-81.89,0.755,-0.013,0.010,-0.655
8694352.000000,0.003,-0.035,1.009,-0.13,0.06,-0.06,-24.18,29.81,-22.54,-0.11,-1.92,-81.89,0.755,-0.013,0.010,-0.655
8694362.000000,0.002,-0.034,1.009,0.07,0.04,-0.02,-24.18,29.81,-22.54,-0.11,-1.92,-81.89,0.755,-0.013,0.010,-0.655
8694372.000000,0.002,-0.035,1.006,-0.09,0.14,0.06,-24.18,29.81,-22.54,-0.11,-1.92,-81.89,0.755,-0.013,0.010,-0.655
8694382.000000,0.006,-0.036,1.006,0.03,0.02,-0.04,-24.92,30.68,-22.42,-0.11,-1.92,-81.89,0.755,-0.013,0.010,-0.655
8694392.000000,0.001,-0.032,1.010,-0.01,0.06,-0.06,-24.92,30.68,-22.42,-0.11,-1.92,-81.89,0.755,-0.013,0.010,-0.655
8694402.000000,0.006,-0.035,1.003,-0.03,0.18,-0.06,-24.92,30.68,-22.42,-0.11,-1.92,-81.89,0.755,-0.013,0.010,-0.655
8694412.000000,0.002,-0.034,1.011,-0.03,0.14,-0.00,-24.92,30.68,-22.42,-0.11,-1.92,-81.89,0.755,-0.013,0.010,-0.655
8694422.000000,0.002,-0.032,1.007,0.03,0.20,-0.00,-24.92,30.68,-22.42,-0.11,-1.92,-81.89,0.755,-0.013,0.010,-0.655
8694432.000000,0.003,-0.035,1.009,-0.05,0.16,-0.02,-24.35,30.39,-22.50,-0.11,-1.92,-81.89,0.755,-0.013,0.010,-0.655
8694442.000000,0.003,-0.032,1.009,0.05,0.02,-0.06,-24.18,30.39,-22.46,-0.11,-1.92,-81.89,0.755,-0.013,0.010,-0.655
8694452.000000,0.003,-0.034,1.006,0.07,0.04,-0.04,-23.96,30.68,-22.46,-0.11,-1.92,-81.89,0.755,-0.013,0.010,-0.655
8694462.000000,-0.001,-0.034,1.007,-0.01,0.08,-0.02,-24.13,30.27,-22.58,-0.11,-1.92,-81.89,0.755,-0.013,0.010,-0.655
8694472.000000,0.002,-0.035,1.010,0.09,0.14,0.08,-24.23,30.58,-22.42,-0.11,-1.92,-81.89,0.755,-0.013,0.010,-0.655
8694482.000000,-0.001,-0.032,1.007,0.09,0.18,-0.04,-22.98,29.81,-22.75,-0.11,-1.92,-81.89,0.755,-0.013,0.010,-0.655
8694492.000000,0.002,-0.036,1.006,0.05,0.08,-0.00,-23.25,29.81,-22.17,-0.11,-1.92,-81.89,0.755,-0.013,0.010,-0.655
8694502.000000,0.002,-0.032,1.005,-0.01,0.12,-0.02,-22.75,30.00,-22.38,-0.11,-1.92,-81.89,0.755,-0.013,0.010,-0.655
8694512.000000,0.003,-0.032,1.005,0.07,0.16,-0.02,-23.35,29.89,-22.17,-0.11,-1.92,-81.89,0.755,-0.013,0.010,-0.655
8694522.000000,0.002,-0.032,1.009,0.01,0.10,0.02,-22.93,29.93,-22.42,-0.11,-1.92,-81.89,0.755,-0.013,0.010,-0.655
8694532.000000,-0.001,-0.032,1.007,0.05,-0.06,-0.04,-23.77,29.85,-22.67,-0.11,-1.92,-81.89,0.755,-0.013,0.010,-0.655
8694542.000000,0.001,-0.034,1.010,0.03,0.12,-0.00,-23.81,30.54,-22.21,-0.11,-1.92,-81.89,0.755,-0.013,0.010,-0.655
8694552.000000,0.002,-0.034,1.007,0.15,0.08,-0.04,-23.63,30.35,-22.67,-0.11,-1.92,-81.89,0.755,-0.013,0.010,-0.655
8694562.000000,0.002,-0.034,1.006,0.05,-0.04,-0.00,-24.00,30.00,-22.38,-0.11,-1.92,-81.89,0.755,-0.013,0.010,-0.655
8694572.000000,0.002,-0.034,1.007,0.07,0.14,-0.02,-23.73,30.08,-22.58,-0.11,-1.92,-81.89,0.755,-0.013,0.010,-0.655
8694582.000000,-0.001,-0.035,1.010,-0.01,0.00,0.08,-23.89,30.04,-22.42,-0.11,-1.92,-81.89,0.755,-0.013,0.010,-0.655
8694592.000000,0.003,-0.034,1.005,0.09,0.10,-0.04,-24.18,30.27,-22.54,-0.11,-1.92,-81.89,0.755,-0.013,0.010,-0.655
8694602.000000,0.002,-0.035,1.009,0.01,0.18,0.04,-24.18,29.67,-23.00,-0.11,-1.92,-81.89,0.755,-0.013,0.010,-0.655
8694612.000000,0.000,-0.034,1.006,0.05,0.08,-0.02,-24.08,29.89,-22.71,-0.11,-1.92,-81.89,0.755,-0.013,0.010,-0.655
8694622.000000,0.002,-0.035,1.006,0.05,0.04,0.02,-23.89,29.85,-22.42,-0.11,-1.92,-81.89,0.755,-0.013,0.010,-0.655
8694632.000000,0.001,-0.032,1.007,0.05,0.12,0.04,-23.35,30.77,-22.54,-0.11,-1.92,-81.89,0.755,-0.013,0.010,-0.655
8694642.000000,0.001,-0.032,1.006,0.13,0.00,-0.11,-23.81,30.17,-23.00,-0.11,-1.92,-81.89,0.755,-0.013,0.010,-0.655
8694652.000000,0.003,-0.034,1.007,0.09,-0.02,0.04,-23.67,30.35,-22.54,-0.11,-1.92,-81.89,0.755,-0.013,0.010,-0.655
8694662.000000,0.002,-0.032,1.011,0.05,0.10,-0.00,-23.67,30.31,-22.58,-0.11,-1.92,-81.89,0.755,-0.013,0.010,-0.655
8694672.000000,0.001,-0.034,1.009,0.05,0.06,0.04,-23.58,30.27,-22.79,-0.11,-1.92,-81.89,0.755,-0.013,0.010,-0.655
8694682.000000,-0.002,-0.035,1.006,0.03,0.10,0.04,-24.23,29.77,-22.71,-0.11,-1.92,-81.89,0.755,-0.013,0.010,-0.655
8694692.000000,-0.001,-0.034,1.007,-0.01,0.08,-0.04,-24.18,29.48,-22.46,-0.11,-1.92,-81.89,0.755,-0.013,0.010,-0.655
8694702.000000,0.001,-0.035,1.010,0.05,0.12,-0.04,-24.31,29.81,-22.71,-0.11,-1.92,-81.89,0.755,-0.013,0.010,-0.655
8694712.000000,0.002,-0.035,1.002,0.01,-0.02,0.02,-24.27,29.67,-22.88,-0.11,-1.92,-81.89,0.755,-0.013,0.010,-0.655
8694722.000000,0.002,-0.030,1.011,0.03,0.10,-0.04,-24.58,30.04,-22.63,-0.11,-1.92,-81.89,0.755,-0.013,0.010,-0.655
8694732.000000,0.004,-0.032,1.009,0.01,0.16,0.02,-24.50,28.93,-22.63,-0.11,-1.92,-81.89,0.755,-0.013,0.010,-0.655
8694742.000000,0.003,-0.032,1.007,0.03,0.14,0.04,-23.50,28.81,-22.75,-0.11,-1.92,-81.89,0.755,-0.013,0.010,-0.655
8694752.000000,0.001,-0.034,1.011,0.01,0.12,-0.00,-24.00,28.98,-22.54,-0.11,-1.92,-81.89,0.755,-0.013,0.010,-0.655
8694762.000000,0.002,-0.034,1.011,0.11,0.12,-0.00,-23.85,28.98,-22.42,-0.11,-1.92,-81.89,0.755,-0.013,0.010,-0.655
8694772.000000,0.002,-0.032,1.011,0.13,0.14,-0.08,-23.89,28.98,-22.21,-0.11,-1.92,-81.89,0.755,-0.013,0.010,-0.655
8694782.000000,0.002,-0.035,1.006,-0.01,0.12,0.08,-24.31,30.23,-22.50,-0.11,-1.92,-81.89,0.755,-0.013,0.010,-0.655
8694792.000000,0.002,-0.034,1.010,0.01,0.16,-0.00,-24.68,29.71,-22.46,-0.11,-1.92,-81.89,0.755,-0.013,0.010,-0.655
8694802.000000,0.003,-0.034,1.010,-0.05,0.25,0.06,-24.64,30.04,-22.33,-0.11,-1.92,-81.89,0.755,-0.013,0.010,-0.655
8694812.000000,0.001,-0.032,1.007,0.05,0.12,-0.02,-24.81,30.23,-22.67,-0.11,-1.92,-81.89,0.755,-0.013,0.010,-0.655
8694822.000000,0.000,-0.034,1.006,-0.03,0.23,-0.04,-24.58,29.85,-22.33,-0.11,-1.92,-81.89,0.755,-0.013,0.010,-0.655
8694832.000000,0.002,-0.032,1.009,0.03,0.02,-0.04,-24.00,30.46,-22.79,-0.11,-1.92,-81.89,0.755,-0.013,0.010,-0.655
8694842.000000,0.002,-0.034,1.006,0.03,0.00,0.04,-24.73,30.17,-22.75,-0.11,-1.92,-81.89,0.755,-0.013,0.010,-0.655
8694852.000000,0.001,-0.034,1.007,0.07,0.04,-0.00,-24.42,30.27,-22.96,-0.11,-1.92,-81.89,0.755,-0.013,0.010,-0.655
8694862.000000,0.001,-0.035,1.011,0.03,0.18,-0.02,-24.58,30.23,-22.38,-0.11,-1.92,-81.89,0.755,-0.013,0.010,-0.655
8694872.000000,0.002,-0.036,1.009,-0.01,0.06,-0.00,-24.58,29.93,-22.63,-0.11,-1.92,-81.89,0.755,-0.013,0.010,-0.655
8694882.000000,0.002,-0.034,1.010,-0.01,0.14,-0.00,-23.58,29.58,-22.58,-0.11,-1.92,-81.89,0.755,-0.013,0.010,-0.655
8694892.000000,0.001,-0.031,1.013,0.09,0.06,-0.04,-23.89,29.67,-22.42,-0.11,-1.92,-81.89,0.755,-0.013,0.010,-0.655
8694902.000000,0.003,-0.031,1.009,0.05,0.06,-0.02,-23.73,29.81,-22.38,-0.11,-1.92,-81.89,0.755,-0.013,0.010,-0.655
8694912.000000,0.002,-0.035,1.010,0.07,0.08,0.04,-24.00,29.48,-22.38,-0.11,-1.92,-81.89,0.755,-0.013,0.010,-0.655
8694922.000000,0.002,-0.032,1.013,-0.03,0.10,-0.00,-24.00,29.31,-22.63,-0.11,-1.92,-81.89,0.755,-0.013,0.010,-0.655
8694932.000000,0.002,-0.036,1.009,0.05,0.06,-0.08,-24.08,28.75,-22.46,-0.11,-1.92,-81.89,0.755,-0.013,0.010,-0.655
8694942.000000,0.004,-0.032,1.009,-0.05,0.14,0.04,-24.00,28.85,-22.17,-0.11,-1.92,-81.89,0.755,-0.013,0.010,-0.655
8694952.000000,-0.001,-0.032,1.007,0.07,0.04,-0.02,-24.27,28.98,-22.42,-0.11,-1.92,-81.89,0.755,-0.013,0.010,-0.655
8694962.000000,0.002,-0.035,1.006,-0.01,-0.04,-0.04,-23.73,28.98,-22.29,-0.11,-1.92,-81.89,0.755,-0.013,0.010,-0.655
8694972.000000,0.002,-0.035,1.007,0.09,0.14,0.04,-24.18,29.21,-22.42,-0.11,-1.92,-81.89,0.755,-0.013,0.010,-0.655
8694982.000000,0.003,-0.032,1.009,0.07,0.06,0.02,-23.73,29.93,-22.54,-0.11,-1.92,-81.89,0.755,-0.013,0.010,-0.655
8694992.000000,0.002,-0.035,1.010,0.01,0.08,-0.08,-23.50,30.23,-22.50,-0.11,-1.92,-81.89,0.755,-0.013,0.010,-0.655
8695002.000000,0.002,-0.034,1.011,0.07,0.12,-0.00,-23.63,30.13,-22.46,-0.11,-1.92,-81.89,0.755,-0.013,0.010,-0.655
8695012.000000,0.002,-0.032,1.009,0.03,0.10,-0.00,-23.58,30.00,-22.29,-0.11,-1.92,-81.89,0.755,-0.013,0.010,-0.655
8695022.000000,0.003,-0.034,1.010,0.01,0.14,-0.08,-23.54,29.81,-22.67,-0.11,-1.92,-81.89,0.755,-0.013,0.010,-0.655
8695032.000000,0.002,-0.038,1.009,-0.03,0.04,-0.06,-24.46,30.17,-22.46,-0.11,-1.92,-81.89,0.755,-0.013,0.010,-0.655
8695042.000000,0.002,-0.035,1.007,0.03,0.00,0.02,-24.68,30.04,-22.38,-0.11,-1.92,-81.89,0.755,-0.013,0.010,-0.655
8695052.000000,0.002,-0.031,1.006,-0.01,-0.06,-0.02,-24.73,30.17,-22.75,-0.11,-1.92,-81.89,0.755,-0.013,0.010,-0.655
8695062.000000,0.002,-0.034,1.007,-0.07,0.16,-0.06,-25.04,30.00,-22.58,-0.11,-1.92,-81.89,0.755,-0.013,0.010,-0.655
8695072.000000,0.000,-0.035,1.005,0.05,0.18,-0.04,-24.73,30.27,-22.54,-0.11,-1.92,-81.89,0.755,-0.013,0.010,-0.655
8695082.000000,0.002,-0.035,1.006,0.01,0.08,0.10,-23.77,29.81,-22.67,-0.11,-1.92,-81.89,0.755,-0.013,0.010,-0.655
8695092.000000,0.003,-0.032,1.007,0.01,0.10,-0.04,-23.39,29.48,-22.79,-0.11,-1.92,-81.89,0.755,-0.013,0.010,-0.655
8695102.000000,0.002,-0.034,1.011,-0.01,0.10,0.02,-24.00,29.54,-22.63,-0.11,-1.92,-81.89,0.755,-0.013,0.010,-0.655
8695112.000000,0.003,-0.034,1.007,0.05,0.16,-0.08,-23.67,29.63,-22.46,-0.11,-1.92,-81.89,0.755,-0.013,0.010,-0.655
8695122.000000,0.003,-0.035,1.007,-0.09,0.10,0.12,-23.81,29.43,-22.75,-0.11,-1.92,-81.89,0.755,-0.013,0.010,-0.655
8695132.000000,0.002,-0.034,1.006,0.13,0.14,-0.06,-24.13,29.13,-22.50,-0.11,-1.92,-81.89,0.755,-0.013,0.010,-0.655
8695142.000000,-0.001,-0.034,1.006,0.01,0.06,-0.02,-23.89,29.17,-22.00,-0.11,-1.92,-81.89,0.755,-0.013,0.010,-0.655
8695152.000000,0.002,-0.034,1.007,0.03,0.06,-0.06,-24.27,28.89,-22.17,-0.11,-1.92,-81.89,0.755,-0.013,0.010,-0.655
8695162.000000,-0.005,-0.031,1.007,0.03,0.18,-0.02,-24.35,28.89,-22.50,-0.11,-1.92,-81.89,0.755,-0.013,0.010,-0.655
8695172.000000,0.002,-0.032,1.010,-0.03,0.04,-0.02,-23.96,29.31,-22.13,-0.11,-1.92,-81.89,0.755,-0.013,0.010,-0.655
8695182.000000,0.002,-0.034,1.009,0.07,0.02,-0.00,-23.43,30.00,-22.79,-0.11,-1.92,-81.89,0.755,-0.013,0.010,-0.655
8695192.000000,0.003,-0.032,1.013,0.05,-0.06,0.06,-23.54,29.71,-22.79,-0.11,-1.92,-81.89,0.755,-0.013,0.010,-0.655
8695202.000000,0.002,-0.032,1.009,0.03,0.27,-0.02,-23.89,29.89,-22.50,-0.11,-1.92,-81.89,0.755,-0.013,0.010,-0.655
8695212.000000,0.002,-0.034,1.003,0.07,0.06,-0.00,-23.63,29.54,-22.13,-0.11,-1.92,-81.89,0.755,-0.013,0.010,-0.655
8695222.000000,-0.001,-0.031,1.007,0.07,0.14,-0.04,-23.54,29.77,-22.79,-0.11,-1.92,-81.89,0.755,-0.013,0.010,-0.655
8695232.000000,-0.001,-0.035,1.009,0.11,0.06,0.02,-24.23,29.71,-22.54,-0.11,-1.92,-81.89,0.755,-0.013,0.010,-0.655
8695242.000000,0.002,-0.036,1.009,0.01,0.04,0.02,-24.00,29.43,-22.50,-0.11,-1.92,-81.89,0.755,-0.013,0.010,-0.655
8695252.000000,0.002,-0.032,1.007,0.13,0.00,0.04,-24.08,29.54,-22.67,-0.11,-1.92,-81.89,0.755,-0.013,0.010,-0.655
8695262.000000,0.003,-0.036,1.006,-0.03,0.21,-0.02,-24.08,29.54,-22.46,-0.11,-1.92,-81.89,0.755,-0.013,0.010,-0.655
8695272.000000,0.001,-0.034,1.009,0.03,0.08,0.02,-24.27,29.67,-22.54,-0.11,-1.92,-81.89,0.755,-0.013,0.010,-0.655
8695282.000000,0.001,-0.035,1.009,0.05,0.00,0.06,-23.54,30.13,-22.58,-0.11,-1.92,-81.89,0.755,-0.013,0.010,-0.655
8695292.000000,0.003,-0.032,1.007,0.03,0.06,-0.00,-23.43,30.08,-22.33,-0.11,-1.92,-81.89,0.755,-0.013,0.010,-0.655
8695302.000000,0.001,-0.034,1.010,0.11,0.04,-0.06,-23.54,30.39,-22.42,-0.11,-1.92,-81.89,0.755,-0.013,0.010,-0.655
8695312.000000,0.001,-0.034,1.013,0.01,0.00,-0.00,-23.63,30.08,-22.58,-0.11,-1.92,-81.89,0.755,-0.013,0.010,-0.655
8695322.000000,0.003,-0.031,1.010,0.01,0.14,-0.00,-23.77,29.89,-22.75,-0.11,-1.92,-81.89,0.755,-0.013,0.010,-0.655
8695332.000000,0.002,-0.035,1.007,0.01,0.02,-0.04,-23.73,30.04,-22.50,-0.11,-1.92,-81.89,0.755,-0.013,0.010,-0.655
8695342.000000,0.000,-0.035,1.006,0.05,0.02,-0.00,-23.73,29.89,-22.67,-0.11,-1.92,-81.89,0.755,-0.013,0.010,-0.655
8695352.000000,0.002,-0.036,1.007,0.05,0.06,-0.08,-24.00,30.00,-22.50,-0.11,-1.92,-81.89,0.755,-0.013,0.010,-0.655
8695362.000000,0.002,-0.035,1.009,0.05,0.08,-0.04,-24.08,29.81,-22.33,-0.11,-1.92,-81.89,0.755,-0.013,0.010,-0.655
8695372.000000,0.003,-0.031,1.005,0.07,0.10,-0.04,-23.96,30.04,-22.63,-0.11,-1.92,-81.89,0.755,-0.013,0.010,-0.655
8695382.000000,0.000,-0.039,1.010,0.01,0.10,-0.00,-23.77,29.63,-22.46,-0.11,-1.92,-81.89,0.755,-0.013,0.010,-0.655
8695392.000000,0.001,-0.034,1.010,0.01,0.14,-0.04,-23.67,29.93,-22.63,-0.11,-1.92,-81.89,0.755,-0.013,0.010,-0.655
8695402.000000,0.004,-0.034,1.006,0.05,0.12,0.06,-23.50,29.08,-22.75,-0.11,-1.92,-81.89,0.755,-0.013,0.010,-0.655
8695412.000000,0.001,-0.034,1.007,-0.01,0.06,-0.00,-23.77,29.48,-22.58,-0.11,-1.92,-81.89,0.755,-0.013,0.010,-0.655
8695422.000000,0.002,-0.034,1.009,0.07,0.08,-0.02,-23.25,29.67,-22.58,-0.11,-1.92,-81.89,0.755,-0.013,0.010,-0.655
8695432.000000,0.002,-0.035,1.007,-0.01,0.14,-0.06,-24.00,30.31,-22.50,-0.11,-1.92,-81.89,0.755,-0.013,0.010,-0.655
8695442.000000,0.004,-0.032,1.007,0.07,0.12,0.08,-23.63,30.13,-22.33,-0.11,-1.92,-81.89,0.755,-0.013,0.010,-0.655
8695452.000000,0.003,-0.034,1.006,0.03,0.14,-0.02,-24.04,30.23,-22.42,-0.11,-1.92,-81.89,0.755,-0.013,0.010,-0.655
8695462.000000,0.003,-0.034,1.005,-0.03,0.12,0.02,-23.58,30.17,-22.46,-0.11,-1.92,-81.89,0.755,-0.013,0.010,-0.655
8695472.000000,0.003,-0.035,1.013,0.01,0.04,0.04,-23.54,30.04,-22.38,-0.11,-1.92,-81.89,0.755,-0.013,0.010,-0.655
8695482.000000,0.002,-0.035,1.007,0.09,0.14,-0.00,-23.58,28.75,-22.75,-0.11,-1.92,-81.89,0.755,-0.013,0.010,-0.655
8695492.000000,0.002,-0.036,1.009,0.03,0.04,-0.00,-23.67,29.13,-22.71,-0.11,-1.92,-81.89,0.755,-0.013,0.010,-0.655
8695502.000000,0.002,-0.035,1.010,-0.01,0.04,-0.06,-24.31,28.75,-22.54,-0.11,-1.92,-81.89,0.755,-0.013,0.010,-0.655
8695512.000000,0.003,-0.034,1.006,0.05,-0.10,0.02,-24.04,28.89,-22.54,-0.11,-1.92,-81.89,0.755,-0.013,0.010,-0.655
8695522.000000,0.001,-0.034,1.007,0.03,0.08,0.02,-24.35,28.75,-22.63,-0.11,-1.92,-81.89,0.755,-0.013,0.010,-0.655
8695532.000000,0.003,-0.031,1.006,0.07,0.08,-0.08,-24.81,29.71,-22.50,-0.11,-1.92,-81.89,0.755,-0.013,0.010,-0.655
8695542.000000,0.002,-0.035,1.009,0.01,0.02,-0.06,-24.73,30.17,-22.17,-0.11,-1.92,-81.89,0.755,-0.013,0.010,-0.655
8695552.000000,0.003,-0.036,1.007,0.07,0.10,0.02,-25.18,30.68,-22.25,-0.11,-1.92,-81.89,0.755,-0.013,0.010,-0.655
8695562.000000,0.004,-0.034,1.007,0.01,0.14,-0.06,-24.92,30.35,-22.29,-0.11,-1.92,-81.89,0.755,-0.013,0.010,-0.655
8695572.000000,0.003,-0.031,1.009,0.09,0.10,0.04,-25.10,30.58,-21.88,-0.11,-1.92,-81.89,0.755,-0.013,0.010,-0.655
8695582.000000,0.003,-0.031,1.010,-0.05,0.08,-0.08,-24.23,29.85,-22.71,-0.11,-1.92,-81.89,0.755,-0.013,0.010,-0.655
8695592.000000,0.000,-0.035,1.007,0.11,0.10,-0.00,-24.27,29.81,-22.63,-0.11,-1.92,-81.89,0.755,-0.013,0.010,-0.655
8695602.000000,0.002,-0.034,1.011,-0.07,0.21,-0.00,-24.68,29.89,-22.63,-0.11,-1.92,-81.89,0.755,-0.013,0.010,-0.655
8695612.000000,0.003,-0.036,1.006,0.09,0.10,0.04,-24.31,29.63,-22.46,-0.11,-1.92,-81.89,0.755,-0.013,0.010,-0.655
8695622.000000,0.004,-0.032,1.006,0.03,0.02,-0.00,-24.54,29.67,-22.83,-0.11,-1.92,-81.89,0.755,-0.013,0.010,-0.655
8695632.000000,0.002,-0.034,1.006,0.13,0.06,0.02,-24.46,29.67,-22.67,-0.11,-1.92,-81.89,0.755,-0.013,0.010,-0.655
8695642.000000,0.000,-0.035,1.007,0.01,0.08,-0.04,-24.77,29.81,-22.71,-0.11,-1.92,-81.89,0.755,-0.013,0.010,-0.655
8695652.000000,0.001,-0.032,1.006,0.03,0.02,-0.13,-24.68,30.04,-22.71,-0.11,-1.92,-81.89,0.755,-0.013,0.010,-0.655
8695662.000000,0.003,-0.031,1.007,0.05,0.06,-0.00,-24.18,30.31,-22.42,-0.11,-1.92,-81.89,0.755,-0.013,0.010,-0.655
8695672.000000,0.002,-0.034,1.009,-0.03,0.14,0.04,-24.88,29.71,-22.46,-0.11,-1.92,-81.89,0.755,-0.013,0.010,-0.655
8695682.000000,0.000,-0.035,1.007,-0.01,0.08,-0.08,-24.88,29.04,-22.67,-0.11,-1.92,-81.89,0.755,-0.013,0.010,-0.655
8695692.000000,-0.001,-0.032,1.006,0.01,0.12,-0.06,-24.81,29.13,-22.83,-0.11,-1.92,-81.89,0.755,-0.013,0.010,-0.655
8695702.000000,0.000,-0.035,1.007,0.07,-0.02,-0.04,-24.46,28.93,-22.38,-0.11,-1.92,-81.89,0.755,-0.013,0.010,-0.655
8695712.000000,0.003,-0.034,1.009,-0.03,0.10,0.06,-24.46,28.98,-22.88,-0.11,-1.92,-81.89,0.755,-0.013,0.010,-0.655
8695722.000000,0.004,-0.034,1.005,-0.03,0.10,-0.00,-24.58,28.89,-22.75,-0.11,-1.92,-81.89,0.755,-0.013,0.010,-0.655
8695732.000000,0.003,-0.035,1.006,0.03,0.06,-0.00,-24.73,29.93,-22.46,-0.11,-1.92,-81.89,0.755,-0.013,0.010,-0.655
8695742.000000,0.001,-0.035,1.010,0.05,0.10,-0.08,-24.88,30.23,-22.33,-0.11,-1.92,-81.89,0.755,-0.013,0.010,-0.655
8695752.000000,0.002,-0.031,1.005,0.05,0.02,0.02,-24.58,30.04,-22.17,-0.11,-1.92,-81.89,0.755,-0.013,0.010,-0.655
8695762.000000,0.001,-0.032,1.006,0.05,0.14,-0.04,-24.81,29.93,-21.96,-0.11,-1.92,-81.89,0.755,-0.013,0.010,-0.655
8695772.000000,0.000,-0.035,1.006,-0.03,0.04,-0.06,-25.14,30.17,-22.38,-0.11,-1.92,-81.89,0.755,-0.013,0.010,-0.655
8695782.000000,0.003,-0.035,1.007,-0.05,0.06,0.04,-24.81,29.54,-22.67,-0.11,-1.92,-81.89,0.755,-0.013,0.010,-0.655
8695792.000000,0.002,-0.035,1.013,0.11,-0.06,-0.04,-25.14,29.71,-22.42,-0.11,-1.92,-81.89,0.755,-0.013,0.010,-0.655
8695802.000000,0.002,-0.032,1.010,0.01,0.02,-0.04,-24.73,29.63,-22.67,-0.11,-1.92,-81.89,0.755,-0.013,0.010,-0.655
8695812.000000,-0.001,-0.032,1.011,-0.05,0.12,-0.02,-24.54,29.63,-22.63,-0.11,-1.92,-81.89,0.755,-0.013,0.010,-0.655
8695822.000000,-0.002,-0.035,1.010,0.01,0.06,0.02,-24.54,29.54,-22.54,-0.11,-1.92,-81.89,0.755,-0.013,0.010,-0.655
8695832.000000,0.000,-0.035,1.007,-0.01,0.02,-0.04,-24.27,29.04,-22.58,-0.11,-1.92,-81.89,0.755,-0.013,0.010,-0.655
8695842.000000,0.003,-0.032,1.005,0.05,0.00,0.04,-24.46,28.89,-22.42,-0.11,-1.92,-81.89,0.755,-0.013,0.010,-0.655
8695852.000000,0.001,-0.032,1.007,0.09,0.10,0.10,-24.13,28.89,-22.75,-0.11,-1.92,-81.89,0.755,-0.013,0.010,-0.655
8695862.000000,0.002,-0.035,1.007,0.01,0.14,-0.00,-24.54,28.93,-22.50,-0.11,-1.92,-81.89,0.755,-0.013,0.010,-0.655
8695872.000000,0.003,-0.038,1.010,0.01,0.18,-0.00,-24.64,28.85,-22.67,-0.11,-1.92,-81.89,0.755,-0.013,0.010,-0.655
8695882.000000,0.001,-0.032,1.006,0.01,0.14,-0.02,-24.64,28.85,-22.67,-0.11,-1.92,-81.89,0.755,-0.013,0.010,-0.655
8695892.000000,0.003,-0.032,1.006,0.01,0.00,-0.00,-24.88,30.23,-22.83,-0.11,-1.92,-81.89,0.755,-0.013,0.010,-0.655
8695902.000000,0.000,-0.035,1.006,-0.01,0.08,0.04,-24.68,29.93,-22.54,-0.11,-1.92,-81.89,0.755,-0.013,0.010,-0.655
8695912.000000,0.002,-0.034,1.005,0.03,0.08,0.06,-24.81,30.23,-22.21,-0.11,-1.92,-81.89,0.755,-0.013,0.010,-0.655
8695922.000000,0.002,-0.034,1.006,0.05,0.02,-0.06,-25.38,29.93,-22.67,-0.11,-1.92,-81.89,0.755,-0.013,0.010,-0.655
8695932.000000,-0.001,-0.036,1.011,-0.09,-0.02,-0.08,-25.38,29.93,-22.67,-0.11,-1.92,-81.89,0.755,-0.013,0.010,-0.655
8695942.000000,0.004,-0.032,1.009,0.01,0.08,0.02,-24.08,30.63,-22.38,-0.11,-1.92,-81.89,0.755,-0.013,0.010,-0.655
8695952.000000,0.003,-0.035,1.006,0.07,0.04,-0.08,-23.89,30.54,-22.63,-0.11,-1.92,-81.89,0.755,-0.013,0.010,-0.655
8695962.000000,0.002,-0.029,1.007,0.09,-0.02,0.04,-24.27,30.46,-22.42,-0.11,-1.92,-81.89,0.755,-0.013,0.010,-0.655
8695972.000000,0.004,-0.034,1.011,0.07,0.08,0.08,-24.64,30.77,-22.38,-0.11,-1.92,-81.89,0.755,-0.013,0.010,-0.655
8695982.000000,0.004,-0.034,1.011,0.03,0.20,-0.00,-24.64,30.77,-22.38,-0.11,-1.92,-81.89,0.755,-0.013,0.010,-0.655
8695992.000000,0.002,-0.035,1.007,0.01,0.00,-0.04,-24.77,29.67,-22.75,-0.11,-1.92,-81.89,0.755,-0.013,0.010,-0.655
8696002.000000,0.002,-0.035,1.011,0.01,0.08,0.04,-24.73,29.81,-22.54,-0.11,-1.92,-81.89,0.755,-0.013,0.010,-0.655
8696012.000000,0.001,-0.036,1.010,0.13,0.00,-0.02,-24.35,29.81,-22.54,-0.11,-1.92,-81.89,0.755,-0.013,0.010,-0.655
8696022.000000,0.003,-0.035,1.007,0.03,0.10,-0.00,-24.58,29.48,-22.63,-0.11,-1.92,-81.89,0.755,-0.013,0.010,-0.655
8696032.000000,0.002,-0.035,1.007,-0.01,0.14,-0.04,-24.58,29.48,-22.63,-0.11,-1.92,-81.89,0.755,-0.013,0.010,-0.655
8696042.000000,0.001,-0.034,1.009,-0.07,0.14,-0.00,-24.68,29.85,-22.67,-0.11,-1.92,-81.89,0.755,-0.013,0.010,-0.655
8696052.000000,0.002,-0.036,1.009,0.11,0.20,-0.11,-24.23,29.81,-22.63,-0.11,-1.92,-81.89,0.755,-0.013,0.010,-0.655
8696062.000000,0.003,-0.034,1.007,0.07,0.08,-0.02,-24.68,29.85,-22.46,-0.11,-1.92,-81.89,0.755,-0.013,0.010,-0.655
8696072.000000,0.002,-0.036,1.007,-0.05,0.14,0.06,-24.64,29.63,-22.46,-0.11,-1.92,-81.89,0.755,-0.013,0.010,-0.655
8696082.000000,0.003,-0.036,1.009,-0.03,0.06,-0.04,-24.64,29.63,-22.46,-0.11,-1.92,-81.89,0.755,-0.013,0.010,-0.655
8696092.000000,0.001,-0.031,1.011,-0.05,0.00,-0.10,-24.54,29.54,-22.67,-0.11,-1.92,-81.89,0.755,-0.013,0.010,-0.655
8696102.000000,0.002,-0.034,1.005,0.01,0.06,-0.02,-24.64,29.48,-22.67,-0.11,-1.92,-81.89,0.755,-0.013,0.010,-0.655
8696112.000000,0.003,-0.034,1.009,0.01,0.02,-0.00,-24.54,29.48,-22.67,-0.11,-1.92,-81.89,0.755,-0.013,0.010,-0.655
8696122.000000,0.003,-0.034,1.005,-0.01,0.16,-0.00,-24.31,29.58,-22.50,-0.11,-1.92,-81.89,0.755,-0.013,0.010,-0.655
8696132.000000,0.003,-0.032,1.007,-0.01,0.08,-0.02,-24.31,29.58,-22.50,-0.11,-1.92,-81.89,0.755,-0.013,0.010,-0.655
8696142.000000,-0.001,-0.035,1.009,0.03,0.18,-0.02,-24.04,29.71,-22.54,-0.11,-1.92,-81.89,0.755,-0.013,0.010,-0.655
8696152.000000,0.002,-0.034,1.005,0.07,0.06,0.04,-23.67,29.58,-22.79,-0.11,-1.92,-81.89,0.755,-0.013,0.010,-0.655
8696162.000000,0.001,-0.031,1.007,-0.01,0.08,0.04,-24.23,29.27,-22.67,-0.11,-1.92,-81.89,0.755,-0.013,0.010,-0.655
8696172.000000,0.001,-0.035,1.013,0.11,0.02,0.02,-24.00,29.04,-22.71,-0.11,-1.92,-81.89,0.755,-0.013,0.010,-0.655
8696182.000000,0.003,-0.034,1.006,0.09,0.00,-0.04,-24.00,29.04,-22.71,-0.11,-1.92,-81.89,0.755,-0.013,0.010,-0.655
8696192.000000,0.001,-0.036,1.013,-0.01,-0.08,0.02,-24.58,29.85,-22.54,-0.11,-1.92,-81.89,0.755,-0.013,0.010,-0.655
8696202.000000,0.004,-0.034,1.013,0.07,0.27,-0.08,-24.46,30.27,-22.58,-0.11,-1.92,-81.89,0.755,-0.013,0.010,-0.655
8696212.000000,0.004,-0.035,1.009,0.05,0.16,0.02,-24.50,30.08,-22.58,-0.11,-1.92,-81.89,0.755,-0.013,0.010,-0.655
8696222.000000,0.001,-0.032,1.010,0.11,0.27,-0.02,-24.81,30.13,-22.63,-0.11,-1.92,-81.89,0.755,-0.013,0.010,-0.655
8696232.000000,0.002,-0.032,1.007,-0.01,0.00,0.06,-24.81,30.13,-22.63,-0.11,-1.92,-81.89,0.755,-0.013,0.010,-0.655
8696242.000000,0.003,-0.034,1.007,0.09,0.10,-0.06,-24.35,29.67,-22.25,-0.11,-1.92,-81.89,0.755,-0.013,0.010,-0.655
8696252.000000,0.001,-0.034,1.011,0.05,-0.06,-0.02,-24.35,29.67,-22.25,-0.11,-1.92,-81.89,0.755,-0.013,0.010,-0.655
8696262.000000,0.001,-0.030,1.007,-0.05,0.14,-0.02,-24.35,29.67,-22.25,-0.11,-1.92,-81.89,0.755,-0.013,0.010,-0.655
8696272.000000,0.001,-0.032,1.011,0.11,0.08,-0.02,-24.35,29.67,-22.25,-0.11,-1.92,-81.89,0.755,-0.013,0.010,-0.655
8696282.000000,-0.001,-0.035,1.007,0.03,0.14,-0.00,-24.54,29.77,-22.83,-0.11,-1.92,-81.89,0.755,-0.013,0.010,-0.655
8696292.000000,0.001,-0.032,1.007,0.03,0.06,-0.08,-23.85,29.85,-22.54,-0.11,-1.92,-81.89,0.755,-0.013,0.010,-0.655
8696302.000000,0.002,-0.036,1.009,0.09,0.18,-0.02,-23.67,29.54,-22.54,-0.11,-1.92,-81.89,0.755,-0.013,0.010,-0.655
8696312.000000,0.001,-0.035,1.013,0.01,0.02,-0.00,-23.31,29.77,-22.58,-0.11,-1.92,-81.89,0.755,-0.013,0.010,-0.655
8696322.000000,0.002,-0.032,1.009,0.05,0.08,-0.04,-23.63,29.63,-22.46,-0.11,-1.92,-81.89,0.755,-0.013,0.010,-0.655
8696332.000000,0.002,-0.034,1.007,-0.01,0.06,0.08,-23.58,29.58,-22.38,-0.11,-1.92,-81.89,0.755,-0.013,0.010,-0.655
8696342.000000,0.002,-0.034,1.006,0.01,0.08,-0.06,-24.68,29.67,-22.75,-0.11,-1.92,-81.89,0.755,-0.013,0.010,-0.655
8696352.000000,0.004,-0.035,1.007,0.11,0.02,-0.00,-24.96,29.39,-22.42,-0.11,-1.92,-81.89,0.755,-0.013,0.010,-0.655
8696362.000000,0.003,-0.031,1.011,0.11,0.06,0.08,-25.27,29.63,-22.71,-0.11,-1.92,-81.89,0.755,-0.013,0.010,-0.655
8696372.000000,0.003,-0.034,1.007,0.03,0.10,-0.00,-24.54,29.77,-22.29,-0.11,-1.92,-81.89,0.755,-0.013,0.010,-0.655
8696382.000000,0.004,-0.034,1.006,0.03,0.10,-0.04,-25.27,29.21,-22.46,-0.11,-1.92,-81.89,0.755,-0.013,0.010,-0.655
8696392.000000,0.004,-0.032,1.007,0.03,0.04,-0.02,-24.27,29.58,-22.71,-0.11,-1.92,-81.89,0.755,-0.013,0.010,-0.655
8696402.000000,0.002,-0.034,1.007,0.01,0.10,-0.00,-24.18,29.48,-22.13,-0.11,-1.92,-81.89,0.755,-0.013,0.010,-0.655
8696412.000000,0.002,-0.034,1.007,0.01,-0.08,-0.00,-24.35,29.35,-22.38,-0.11,-1.92,-81.89,0.755,-0.013,0.010,-0.655
8696422.000000,0.003,-0.036,1.007,0.03,-0.02,-0.02,-24.54,29.13,-22.46,-0.11,-1.92,-81.89,0.755,-0.013,0.010,-0.655
8696432.000000,0.002,-0.034,1.009,0.01,0.10,-0.02,-24.50,29.39,-22.54,-0.11,-1.92,-81.89,0.755,-0.013,0.010,-0.655
8696442.000000,0.002,-0.034,1.009,0.07,0.04,-0.00,-23.89,29.67,-22.46,-0.11,-1.92,-81.89,0.755,-0.013,0.010,-0.655
8696452.000000,0.002,-0.036,1.010,-0.01,0.06,-0.00,-24.18,29.43,-22.50,-0.11,-1.92,-81.89,0.755,-0.013,0.010,-0.655
8696462.000000,0.001,-0.034,1.010,0.09,0.08,-0.00,-23.96,29.54,-22.58,-0.11,-1.92,-81.89,0.755,-0.013,0.010,-0.655
8696472.000000,0.003,-0.031,1.007,0.01,0.10,-0.04,-23.85,29.71,-22.13,-0.11,-1.92,-81.89,0.755,-0.013,0.010,-0.655
8696482.000000,0.002,-0.034,1.007,0.07,0.14,-0.04,-23.77,29.43,-22.38,-0.11,-1.92,-81.89,0.755,-0.013,0.010,-0.655
8696492.000000,-0.001,-0.035,1.007,-0.07,0.02,-0.00,-23.43,30.08,-22.58,-0.11,-1.92,-81.89,0.755,-0.013,0.010,-0.655
8696502.000000,0.006,-0.032,1.006,0.03,-0.06,-0.00,-23.43,29.81,-22.71,-0.11,-1.92,-81.89,0.755,-0.013,0.010,-0.655
8696512.000000,0.003,-0.034,1.010,0.01,0.18,-0.02,-23.81,30.13,-22.75,-0.11,-1.92,-81.89,0.755,-0.013,0.010,-0.655
8696522.000000,0.001,-0.034,1.011,-0.03,0.06,-0.04,-23.02,30.13,-22.67,-0.11,-1.92,-81.89,0.755,-0.013,0.010,-0.655
8696532.000000,-0.001,-0.034,1.009,0.01,0.06,0.04,-23.21,30.08,-22.29,-0.11,-1.92,-81.89,0.755,-0.013,0.010,-0.655
8696542.000000,0.003,-0.034,1.005,0.11,0.04,0.12,-24.13,30.23,-22.75,-0.11,-1.92,-81.89,0.755,-0.013,0.010,-0.655
8696552.000000,0.003,-0.032,1.010,0.07,0.00,-0.04,-24.23,30.04,-22.38,-0.11,-1.92,-81.89,0.755,-0.013,0.010,-0.655
8696562.000000,0.002,-0.034,1.005,0.01,0.16,0.02,-24.23,30.50,-22.54,-0.11,-1.92,-81.89,0.755,-0.013,0.010,-0.655
8696572.000000,-0.001,-0.035,1.007,0.03,0.06,0.04,-24.04,30.17,-22.50,-0.11,-1.92,-81.89,0.755,-0.013,0.010,-0.655
8696582.000000,0.000,-0.034,1.003,0.07,0.02,-0.02,-24.31,30.31,-22.79,-0.11,-1.92,-81.89,0.755,-0.013,0.010,-0.655
8696592.000000,-0.001,-0.035,1.009,-0.03,-0.08,-0.00,-24.50,29.04,-22.54,-0.11,-1.92,-81.89,0.755,-0.013,0.010,-0.655
8696602.000000,0.004,-0.034,1.011,0.01,0.14,-0.04,-24.46,29.08,-22.96,-0.11,-1.92,-81.89,0.755,-0.013,0.010,-0.655
8696612.000000,0.003,-0.035,1.011,-0.07,0.00,-0.06,-24.42,28.89,-22.21,-0.11,-1.92,-81.89,0.755,-0.013,0.010,-0.655
8696622.000000,0.004,-0.036,1.007,0.03,0.10,0.06,-25.00,28.89,-22.71,-0.11,-1.92,-81.89,0.755,-0.013,0.010,-0.655
8696632.000000,0.002,-0.035,1.010,-0.05,0.12,-0.04,-24.96,29.08,-22.63,-0.11,-1.92,-81.89,0.755,-0.013,0.010,-0.655
8696642.000000,0.004,-0.036,1.007,0.03,0.08,-0.08,-24.31,28.67,-22.54,-0.11,-1.92,-81.89,0.755,-0.013,0.010,-0.655
8696652.000000,0.000,-0.034,1.006,-0.01,0.04,-0.04,-24.46,28.98,-22.63,-0.11,-1.92,-81.89,0.755,-0.013,0.010,-0.655
8696662.000000,0.001,-0.034,1.011,-0.03,0.16,0.04,-24.27,29.35,-22.79,-0.11,-1.92,-81.89,0.755,-0.013,0.010,-0.655
8696672.000000,0.001,-0.034,1.009,0.07,0.10,-0.00,-24.46,29.39,-22.58,-0.11,-1.92,-81.89,0.755,-0.013,0.010,-0.655
8696682.000000,-0.001,-0.035,1.013,0.03,0.10,-0.06,-24.13,29.13,-22.58,-0.11,-1.92,-81.89,0.755,-0.013,0.010,-0.655
8696692.000000,0.004,-0.035,1.013,0.03,0.14,0.02,-24.00,29.89,-22.75,-0.11,-1.92,-81.89,0.755,-0.013,0.010,-0.655
8696702.000000,0.001,-0.035,1.009,0.01,0.12,-0.02,-24.08,30.08,-22.25,-0.11,-1.92,-81.89,0.755,-0.013,0.010,-0.655
8696712.000000,0.003,-0.035,1.007,-0.01,0.04,-0.04,-24.23,29.89,-22.54,-0.11,-1.92,-81.89,0.755,-0.013,0.010,-0.655
8696722.000000,0.002,-0.032,1.007,0.11,-0.02,0.06,-24.31,30.08,-22.42,-0.11,-1.92,-81.89,0.755,-0.013,0.010,-0.655
8696732.000000,0.001,-0.034,1.009,-0.07,0.10,-0.04,-23.89,29.85,-22.33,-0.11,-1.92,-81.89,0.755,-0.013,0.010,-0.655
8696742.000000,0.002,-0.032,1.009,0.05,0.12,0.06,-23.81,29.63,-22.67,-0.11,-1.92,-81.89,0.755,-0.013,0.010,-0.655
8696752.000000,0.004,-0.031,1.009,-0.03,0.00,-0.08,-23.43,29.67,-22.29,-0.11,-1.92,-81.89,0.755,-0.013,0.010,-0.655
8696762.000000,0.000,-0.034,1.003,-0.01,0.10,-0.02,-23.77,29.85,-22.33,-0.11,-1.92,-81.89,0.755,-0.013,0.010,-0.655
8696772.000000,0.002,-0.035,1.009,0.07,-0.08,-0.00,-23.54,29.81,-22.38,-0.11,-1.92,-81.89,0.755,-0.013,0.010,-0.655
8696782.000000,0.002,-0.034,1.009,0.05,0.04,0.04,-24.04,29.85,-22.25,-0.11,-1.92,-81.89,0.755,-0.013,0.010,-0.655
8696792.000000,0.002,-0.034,1.005,0.01,0.12,0.04,-24.54,29.77,-23.21,-0.11,-1.92,-81.89,0.755,-0.013,0.010,-0.655
8696802.000000,0.002,-0.032,1.006,0.07,0.06,-0.00,-24.13,29.85,-23.21,-0.11,-1.92,-81.89,0.755,-0.013,0.010,-0.655
8696812.000000,0.001,-0.032,1.011,0.01,0.08,0.02,-24.23,30.00,-23.25,-0.11,-1.92,-81.89,0.755,-0.013,0.010,-0.655
8696822.000000,0.003,-0.034,1.006,0.07,0.08,0.10,-24.50,29.71,-23.46,-0.11,-1.92,-81.89,0.755,-0.013,0.010,-0.655
8696832.000000,0.004,-0.032,1.007,-0.05,0.02,-0.04,-24.08,30.08,-23.21,-0.11,-1.92,-81.89,0.755,-0.013,0.010,-0.655
8696842.000000,0.002,-0.032,1.007,0.11,0.00,-0.00,-24.13,29.77,-22.63,-0.11,-1.92,-81.89,0.755,-0.013,0.010,-0.655
8696852.000000,0.003,-0.034,1.009,-0.07,0.10,0.08,-24.18,29.71,-22.46,-0.11,-1.92,-81.89,0.755,-0.013,0.010,-0.655
8696862.000000,0.002,-0.038,1.007,0.11,0.02,-0.04,-24.35,29.43,-22.83,-0.11,-1.92,-81.89,0.755,-0.013,0.010,-0.655
8696873.000000,0.001,-0.034,1.013,0.05,0.00,0.04,-24.27,29.77,-22.63,-0.11,-1.92,-81.89,0.755,-0.013,0.010,-0.655
8696883.000000,0.001,-0.034,1.011,0.05,0.14,-0.02,-24.08,29.71,-22.58,-0.11,-1.92,-81.89,0.755,-0.013,0.010,-0.655
8696893.000000,-0.001,-0.034,1.013,-0.03,0.12,0.02,-24.04,29.77,-22.42,-0.11,-1.92,-81.89,0.755,-0.013,0.010,-0.655
8696903.000000,-0.005,-0.034,1.009,0.07,0.00,-0.02,-24.04,29.48,-22.58,-0.11,-1.92,-81.89,0.755,-0.013,0.010,-0.655
8696913.000000,0.003,-0.035,1.009,0.01,0.14,-0.02,-24.31,29.85,-22.58,-0.11,-1.92,-81.89,0.755,-0.013,0.010,-0.655
8696923.000000,0.002,-0.031,1.009,0.01,0.04,0.02,-23.96,30.23,-22.46,-0.11,-1.92,-81.89,0.755,-0.013,0.010,-0.655
8696933.000000,0.001,-0.032,1.007,0.07,0.00,-0.00,-24.13,29.85,-22.46,-0.11,-1.92,-81.89,0.755,-0.013,0.010,-0.655
8696943.000000,0.000,-0.034,1.003,-0.03,0.06,0.02,-24.73,29.54,-22.67,-0.11,-1.92,-81.89,0.755,-0.013,0.010,-0.655
8696953.000000,-0.001,-0.036,1.005,0.13,0.16,0.02,-24.96,30.13,-22.46,-0.11,-1.92,-81.89,0.755,-0.013,0.010,-0.655
8696963.000000,0.002,-0.032,1.009,0.03,0.10,-0.06,-25.18,30.35,-22.17,-0.11,-1.92,-81.89,0.755,-0.013,0.010,-0.655
8696973.000000,0.003,-0.034,1.009,0.01,-0.06,-0.04,-24.73,30.08,-22.50,-0.11,-1.92,-81.89,0.755,-0.013,0.010,-0.655
8696983.000000,0.003,-0.031,1.007,0.07,0.10,-0.02,-25.23,29.93,-22.33,-0.11,-1.92,-81.89,0.755,-0.013,0.010,-0.655
8696993.000000,0.002,-0.035,1.005,0.03,0.02,-0.02,-24.46,29.89,-22.50,-0.11,-1.92,-81.89,0.755,-0.013,0.010,-0.655
8697003.000000,0.002,-0.034,1.010,0.05,0.04,-0.04,-24.27,29.67,-22.25,-0.11,-1.92,-81.89,0.755,-0.013,0.010,-0.655
8697013.000000,0.001,-0.034,1.007,-0.05,0.10,-0.06,-24.31,30.08,-22.25,-0.11,-1.92,-81.89,0.755,-0.013,0.010,-0.655
8697023.000000,-0.002,-0.032,1.007,0.09,0.08,-0.00,-24.13,30.13,-22.38,-0.11,-1.92,-81.89,0.755,-0.013,0.010,-0.655
8697033.000000,0.003,-0.034,1.010,0.05,0.23,0.02,-24.13,29.71,-22.13,-0.11,-1.92,-81.89,0.755,-0.013,0.010,-0.655
8697043.000000,0.002,-0.032,1.005,0.05,0.14,0.08,-24.77,29.93,-22.54,-0.11,-1.92,-81.89,0.755,-0.013,0.010,-0.655
8697053.000000,0.002,-0.035,1.009,0.03,0.12,-0.00,-24.73,29.89,-22.46,-0.11,-1.92,-81.89,0.755,-0.013,0.010,-0.655
8697063.000000,0.003,-0.034,1.009,0.15,0.08,-0.00,-24.77,30.00,-22.63,-0.11,-1.92,-81.89,0.755,-0.013,0.010,-0.655
8697073.000000,0.001,-0.035,1.010,0.01,0.14,0.02,-24.58,29.63,-22.63,-0.11,-1.92,-81.89,0.755,-0.013,0.010,-0.655
8697083.000000,0.002,-0.031,1.010,0.03,0.04,-0.02,-24.58,29.63,-22.75,-0.11,-1.92,-81.89,0.755,-0.013,0.010,-0.655
8697093.000000,0.004,-0.034,1.011,0.01,0.04,-0.00,-24.04,29.04,-22.71,-0.11,-1.92,-81.89,0.755,-0.013,0.010,-0.655
8697103.000000,0.003,-0.034,1.009,0.03,0.12,0.02,-24.13,28.63,-22.92,-0.11,-1.92,-81.89,0.755,-0.013,0.010,-0.655
8697113.000000,0.003,-0.034,1.006,-0.01,0.14,-0.10,-24.04,28.71,-22.54,-0.11,-1.92,-81.89,0.755,-0.013,0.010,-0.655
8697123.000000,0.001,-0.035,1.009,0.07,0.04,0.02,-24.18,28.58,-23.08,-0.11,-1.92,-81.89,0.755,-0.013,0.010,-0.655
8697133.000000,0.004,-0.034,1.007,-0.01,0.00,0.02,-24.27,28.85,-22.83,-0.11,-1.92,-81.89,0.755,-0.013,0.010,-0.655
8697143.000000,0.002,-0.034,1.007,0.11,0.10,0.04,-23.02,29.63,-22.75,-0.11,-1.92,-81.89,0.755,-0.013,0.010,-0.655
8697153.000000,0.003,-0.032,1.005,-0.03,0.00,0.04,-23.17,29.77,-22.33,-0.11,-1.92,-81.89,0.755,-0.013,0.010,-0.655
8697163.000000,0.006,-0.031,1.006,0.09,0.14,-0.02,-23.31,29.71,-22.25,-0.11,-1.92,-81.89,0.755,-0.013,0.010,-0.655
8697173.000000,0.002,-0.034,1.009,0.01,0.08,-0.04,-23.21,29.54,-22.38,-0.11,-1.92,-81.89,0.755,-0.013,0.010,-0.655
8697183.000000,0.001,-0.032,1.006,0.09,0.04,0.02,-23.08,29.43,-22.54,-0.11,-1.92,-81.89,0.755,-0.013,0.010,-0.655
8697193.000000,-0.001,-0.038,1.007,-0.09,0.06,-0.00,-24.42,29.54,-22.46,-0.11,-1.92,-81.89,0.755,-0.013,0.010,-0.655
8697203.000000,0.002,-0.031,1.009,0.05,0.08,0.06,-24.50,29.35,-22.29,-0.11,-1.92,-81.89,0.755,-0.013,0.010,-0.655
8697213.000000,0.003,-0.032,1.006,-0.01,0.12,-0.04,-24.68,29.48,-22.29,-0.11,-1.92,-81.89,0.755,-0.013,0.010,-0.655
8697223.000000,0.002,-0.035,1.006,0.05,0.12,0.06,-24.77,29.27,-22.50,-0.11,-1.92,-81.89,0.755,-0.013,0.010,-0.655
8697233.000000,0.003,-0.034,1.009,0.01,0.10,0.04,-24.46,29.13,-22.42,-0.11,-1.92,-81.89,0.755,-0.013,0.010,-0.655
8697243.000000,0.002,-0.034,1.007,0.01,-0.12,0.04,-24.18,30.00,-22.67,-0.11,-1.92,-81.89,0.755,-0.013,0.010,-0.655
8697253.000000,0.004,-0.034,1.011,-0.01,0.00,0.04,-24.50,29.81,-22.83,-0.11,-1.92,-81.89,0.755,-0.013,0.010,-0.655
8697263.000000,0.002,-0.035,1.006,-0.05,0.18,-0.00,-24.13,29.71,-22.25,-0.11,-1.92,-81.89,0.755,-0.013,0.010,-0.655
8697273.000000,0.002,-0.034,1.011,0.13,-0.02,-0.15,-24.23,29.89,-22.54,-0.11,-1.92,-81.89,0.755,-0.013,0.010,-0.655
8697283.000000,0.003,-0.032,1.010,-0.01,0.20,0.06,-24.13,29.77,-22.42,-0.11,-1.92,-81.89,0.755,-0.013,0.010,-0.655
8697293.000000,0.002,-0.035,1.010,-0.05,0.16,-0.02,-24.04,29.67,-22.67,-0.11,-1.92,-81.89,0.755,-0.013,0.010,-0.655
8697303.000000,0.002,-0.032,1.009,0.05,0.06,-0.02,-24.23,29.35,-22.67,-0.11,-1.92,-81.89,0.755,-0.013,0.010,-0.655
8697313.000000,-0.001,-0.034,1.009,-0.01,0.02,-0.04,-24.18,29.89,-22.46,-0.11,-1.92,-81.89,0.755,-0.013,0.010,-0.655
8697323.000000,0.003,-0.035,1.006,0.05,0.16,-0.06,-24.08,29.54,-22.58,-0.11,-1.92,-81.89,0.755,-0.013,0.010,-0.655
8697333.000000,-0.002,-0.034,1.006,0.01,0.04,-0.00,-24.31,29.71,-22.54,-0.11,-1.92,-81.89,0.755,-0.013,0.010,-0.655
8697343.000000,0.002,-0.032,1.014,0.05,0.14,-0.02,-23.85,29.85,-22.50,-0.11,-1.92,-81.89,0.755,-0.013,0.010,-0.655
8697353.000000,0.002,-0.032,1.010,-0.01,0.14,0.02,-23.89,29.85,-22.46,-0.11,-1.92,-81.89,0.755,-0.013,0.010,-0.655
8697363.000000,0.002,-0.036,1.010,-0.01,-0.08,-0.04,-23.67,29.43,-22.75,-0.11,-1.92,-81.89,0.755,-0.013,0.010,-0.655
8697373.000000,0.004,-0.034,1.005,0.03,0.04,-0.02,-23.43,29.93,-22.25,-0.11,-1.92,-81.89,0.755,-0.013,0.010,-0.655
8697383.000000,0.002,-0.034,1.007,0.01,-0.04,-0.04,-23.25,30.00,-22.46,-0.11,-1.92,-81.89,0.755,-0.013,0.010,-0.655
8697393.000000,0.002,-0.036,1.007,-0.01,0.08,0.02,-24.18,29.31,-22.54,-0.11,-1.92,-81.89,0.755,-0.013,0.010,-0.655
8697403.000000,0.002,-0.034,1.009,0.17,0.16,0.02,-24.42,29.13,-22.71,-0.11,-1.92,-81.89,0.755,-0.013,0.010,-0.655
8697413.000000,0.002,-0.035,1.010,0.07,0.10,-0.04,-24.58,29.58,-22.38,-0.11,-1.92,-81.89,0.755,-0.013,0.010,-0.655
8697423.000000,0.002,-0.032,1.006,0.05,0.06,-0.06,-24.08,29.08,-22.54,-0.11,-1.92,-81.89,0.755,-0.013,0.010,-0.655
8697433.000000,0.002,-0.034,1.006,-0.01,0.10,-0.08,-24.68,29.17,-22.67,-0.11,-1.92,-81.89,0.755,-0.013,0.010,-0.655
8697443.000000,0.002,-0.035,1.005,0.01,0.00,-0.02,-24.00,29.54,-22.25,-0.11,-1.92,-81.89,0.755,-0.013,0.010,-0.655
8697453.000000,-0.002,-0.032,1.010,-0.03,0.12,-0.00,-24.35,29.77,-22.50,-0.11,-1.92,-81.89,0.755,-0.013,0.010,-0.655
8697463.000000,0.002,-0.035,1.007,-0.07,0.14,0.06,-24.18,29.63,-22.67,-0.11,-1.92,-81.89,0.755,-0.013,0.010,-0.655
8697473.000000,0.004,-0.031,1.009,0.05,0.02,-0.04,-24.18,29.63,-22.46,-0.11,-1.92,-81.89,0.755,-0.013,0.010,-0.655
8697483.000000,0.000,-0.035,1.006,-0.01,0.08,-0.00,-24.42,29.81,-22.42,-0.11,-1.92,-81.89,0.755,-0.013,0.010,-0.655
8697493.000000,0.004,-0.036,1.009,0.13,0.16,-0.04,-23.50,30.13,-22.54,-0.11,-1.92,-81.89,0.755,-0.013,0.010,-0.655
8697503.000000,0.003,-0.035,1.009,0.03,0.00,-0.00,-23.63,30.46,-22.21,-0.11,-1.92,-81.89,0.755,-0.013,0.010,-0.655
8697513.000000,0.002,-0.034,1.011,-0.01,0.23,0.02,-23.81,29.89,-22.42,-0.11,-1.92,-81.89,0.755,-0.013,0.010,-0.655
8697523.000000,0.001,-0.032,1.009,0.05,0.08,-0.04,-23.85,30.46,-22.54,-0.11,-1.92,-81.89,0.755,-0.013,0.010,-0.655
8697533.000000,0.003,-0.036,1.009,-0.01,0.06,0.06,-23.63,30.35,-22.50,-0.11,-1.92,-81.89,0.755,-0.013,0.010,-0.655
8697543.000000,0.003,-0.031,1.003,0.01,0.02,-0.06,-24.13,29.93,-22.58,-0.11,-1.92,-81.89,0.755,-0.013,0.010,-0.655
8697553.000000,0.003,-0.036,1.010,-0.01,0.12,-0.02,-23.67,30.04,-22.79,-0.11,-1.92,-81.89,0.755,-0.013,0.010,-0.655
8697563.000000,0.002,-0.036,1.006,0.05,0.06,0.04,-24.08,30.39,-22.67,-0.11,-1.92,-81.89,0.755,-0.013,0.010,-0.655
8697573.000000,0.001,-0.034,1.007,0.07,0.16,-0.00,-24.08,30.17,-22.63,-0.11,-1.92,-81.89,0.755,-0.013,0.010,-0.655
8697583.000000,0.002,-0.032,1.006,0.11,0.08,0.06,-23.58,30.17,-22.42,-0.11,-1.92,-81.89,0.755,-0.013,0.010,-0.655
8697593.000000,0.001,-0.032,1.007,0.01,0.14,-0.08,-24.54,29.93,-22.63,-0.11,-1.92,-81.89,0.755,-0.013,0.010,-0.655
8697603.000000,0.002,-0.034,1.006,0.09,0.08,-0.02,-24.35,29.89,-22.25,-0.11,-1.92,-81.89,0.755,-0.013,0.010,-0.655
8697613.000000,0.003,-0.032,1.003,0.09,0.06,0.02,-24.18,29.71,-22.42,-0.11,-1.92,-81.89,0.755,-0.013,0.010,-0.655
8697623.000000,0.001,-0.034,1.007,0.01,0.04,-0.00,-24.13,29.81,-22.21,-0.11,-1.92,-81.89,0.755,-0.013,0.010,-0.655
8697633.000000,0.002,-0.036,1.013,-0.07,0.08,-0.04,-24.08,29.63,-22.79,-0.11,-1.92,-81.89,0.755,-0.013,0.010,-0.655
8697643.000000,0.003,-0.034,1.009,-0.01,-0.02,-0.04,-24.08,29.54,-22.63,-0.11,-1.92,-81.89,0.755,-0.013,0.010,-0.655
8697653.000000,0.003,-0.034,1.010,-0.09,0.10,-0.04,-24.64,29.67,-22.58,-0.11,-1.92,-81.89,0.755,-0.013,0.010,-0.655
8697663.000000,0.001,-0.032,1.011,0.03,0.02,-0.00,-24.46,30.04,-22.25,-0.11,-1.92,-81.89,0.755,-0.013,0.010,-0.655
8697673.000000,0.001,-0.036,1.013,-0.03,0.16,0.04,-24.23,30.00,-22.42,-0.11,-1.92,-81.89,0.755,-0.013,0.010,-0.655
8697683.000000,0.001,-0.035,1.009,0.05,0.14,-0.02,-24.18,29.89,-22.75,-0.11,-1.92,-81.89,0.755,-0.013,0.010,-0.655
8697693.000000,0.003,-0.035,1.010,0.05,0.16,-0.02,-23.96,29.13,-22.38,-0.11,-1.92,-81.89,0.755,-0.013,0.010,-0.655
8697703.000000,-0.001,-0.035,1.006,0.07,0.12,-0.02,-23.81,28.52,-22.42,-0.11,-1.92,-81.89,0.755,-0.013,0.010,-0.655
8697713.000000,0.002,-0.032,1.005,0.07,0.12,0.02,-23.58,28.67,-22.71,-0.11,-1.92,-81.89,0.755,-0.013,0.010,-0.655
8697723.000000,0.002,-0.032,1.010,-0.03,0.14,0.04,-24.00,28.93,-22.96,-0.11,-1.92,-81.89,0.755,-0.013,0.010,-0.655
8697733.000000,0.001,-0.034,1.009,-0.07,0.02,-0.10,-23.54,29.31,-22.54,-0.11,-1.92,-81.89,0.755,-0.013,0.010,-0.655
8697743.000000,-0.001,-0.032,1.003,-0.01,0.12,-0.00,-23.54,29.31,-22.54,-0.11,-1.92,-81.89,0.755,-0.013,0.010,-0.655
8697753.000000,-0.001,-0.034,1.009,0.03,0.02,-0.00,-22.89,30.23,-22.75,-0.11,-1.92,-81.89,0.755,-0.013,0.010,-0.655
8697763.000000,0.007,-0.032,1.005,-0.01,0.21,-0.02,-22.67,29.89,-22.75,-0.11,-1.92,-81.89,0.755,-0.013,0.010,-0.655
8697773.000000,0.000,-0.035,1.007,0.03,0.14,-0.02,-22.85,29.89,-22.79,-0.11,-1.92,-81.89,0.755,-0.013,0.010,-0.655
8697783.000000,0.003,-0.032,1.011,-0.03,0.04,-0.06,-22.56,29.93,-22.63,-0.11,-1.92,-81.89,0.755,-0.013,0.010,-0.655
8697793.000000,0.004,-0.032,1.005,-0.05,0.04,-0.02,-22.56,29.93,-22.63,-0.11,-1.92,-81.89,0.755,-0.013,0.010,-0.655
8697803.000000,0.002,-0.034,1.010,0.13,0.04,0.04,-24.35,28.89,-22.13,-0.11,-1.92,-81.89,0.755,-0.013,0.010,-0.655
8697813.000000,0.001,-0.034,1.010,-0.01,0.14,-0.08,-24.00,28.89,-22.38,-0.10,-1.92,-81.89,0.755,-0.013,0.010,-0.655
8697823.000000,0.002,-0.034,1.014,0.03,0.04,0.04,-24.64,28.93,-22.79,-0.10,-1.92,-81.89,0.755,-0.013,0.010,-0.655
8697833.000000,-0.001,-0.031,1.010,0.01,0.02,-0.02,-24.81,29.35,-22.33,-0.10,-1.92,-81.89,0.755,-0.013,0.010,-0.655
8697843.000000,0.003,-0.036,1.010,0.01,-0.04,-0.06,-24.81,29.35,-22.33,-0.10,-1.92,-81.89,0.755,-0.013,0.010,-0.655
8697853.000000,0.002,-0.034,1.009,0.01,0.18,-0.04,-24.00,29.85,-22.67,-0.10,-1.92,-81.89,0.755,-0.013,0.010,-0.655
8697863.000000,0.002,-0.035,1.011,-0.03,0.02,-0.04,-23.96,29.89,-22.63,-0.10,-1.92,-81.89,0.755,-0.013,0.010,-0.655
8697873.000000,0.003,-0.034,1.006,0.03,0.06,-0.00,-23.96,29.89,-23.17,-0.10,-1.92,-81.89,0.755,-0.013,0.010,-0.655
8697883.000000,0.002,-0.034,1.013,0.01,0.14,0.06,-23.89,29.77,-22.83,-0.10,-1.92,-81.89,0.755,-0.013,0.010,-0.655
8697893.000000,0.002,-0.038,1.011,0.01,0.14,-0.04,-23.89,29.77,-22.83,-0.10,-1.92,-81.89,0.755,-0.013,0.010,-0.655
8697903.000000,0.002,-0.035,1.010,-0.01,0.00,0.06,-22.67,29.48,-22.71,-0.10,-1.92,-81.89,0.755,-0.013,0.010,-0.655
8697913.000000,0.001,-0.034,1.007,-0.01,0.10,-0.00,-22.67,29.81,-22.83,-0.10,-1.92,-81.89,0.755,-0.013,0.010,-0.655
8697923.000000,0.001,-0.032,1.006,0.09,0.14,0.04,-22.43,30.00,-22.58,-0.10,-1.92,-81.89,0.755,-0.013,0.010,-0.655
8697933.000000,0.002,-0.032,1.005,0.01,0.10,0.02,-22.67,30.17,-22.71,-0.10,-1.92,-81.89,0.755,-0.013,0.010,-0.655
8697943.000000,0.003,-0.034,1.006,-0.03,0.14,-0.08,-22.67,30.17,-22.71,-0.10,-1.92,-81.89,0.755,-0.013,0.010,-0.655
8697953.000000,0.000,-0.038,1.007,0.07,0.08,-0.00,-24.04,29.67,-22.33,-0.10,-1.92,-81.89,0.755,-0.013,0.010,-0.655
8697963.000000,0.003,-0.035,1.011,0.03,0.00,-0.02,-23.73,30.23,-22.58,-0.10,-1.92,-81.89,0.755,-0.013,0.010,-0.655
8697973.000000,0.002,-0.035,1.006,-0.03,0.06,-0.00,-23.63,29.93,-22.58,-0.11,-1.92,-81.89,0.755,-0.013,0.010,-0.655
8697983.000000,0.002,-0.035,1.007,0.03,0.18,-0.00,-24.00,29.71,-22.58,-0.11,-1.92,-81.89,0.755,-0.013,0.010,-0.655
8697993.000000,-0.001,-0.032,1.007,0.05,0.14,0.04,-24.00,29.71,-22.58,-0.11,-1.92,-81.89,0.755,-0.013,0.010,-0.655
8698003.000000,0.004,-0.032,1.010,0.05,0.10,-0.13,-23.25,29.39,-22.38,-0.11,-1.92,-81.89,0.755,-0.013,0.010,-0.655
8698013.000000,0.000,-0.036,1.009,0.07,0.14,0.04,-23.63,29.54,-22.42,-0.11,-1.92,-81.89,0.755,-0.013,0.010,-0.655
8698023.000000,0.003,-0.034,1.005,0.05,0.10,-0.02,-23.63,29.77,-22.42,-0.11,-1.92,-81.89,0.755,-0.013,0.010,-0.655
8698033.000000,0.003,-0.034,1.005,-0.01,0.02,-0.02,-23.43,29.71,-22.25,-0.11,-1.92,-81.89,0.755,-0.013,0.010,-0.655
8698043.000000,0.002,-0.032,1.006,0.17,-0.04,0.06,-23.43,29.71,-22.25,-0.11,-1.92,-81.89,0.755,-0.013,0.010,-0.655
8698053.000000,0.003,-0.035,1.006,0.03,0.12,0.06,-23.13,29.54,-22.58,-0.11,-1.92,-81.89,0.755,-0.013,0.010,-0.655
8698063.000000,0.002,-0.034,1.007,0.03,0.16,-0.04,-23.31,29.39,-22.71,-0.11,-1.92,-81.89,0.755,-0.013,0.010,-0.655
8698073.000000,0.002,-0.032,1.006,0.09,0.04,0.02,-23.21,29.58,-22.83,-0.11,-1.92,-81.89,0.755,-0.013,0.010,-0.655
8698083.000000,0.004,-0.034,1.009,0.05,0.08,0.04,-23.08,29.43,-22.42,-0.11,-1.92,-81.89,0.755,-0.013,0.010,-0.655
8698093.000000,0.001,-0.032,1.007,0.07,0.06,-0.06,-23.08,29.43,-22.42,-0.11,-1.92,-81.89,0.755,-0.013,0.010,-0.655
8698103.000000,0.000,-0.036,1.009,-0.05,0.12,-0.08,-22.67,29.85,-22.63,-0.11,-1.92,-81.89,0.755,-0.013,0.010,-0.655
8698113.000000,0.004,-0.035,1.007,-0.01,0.04,0.02,-22.67,29.85,-22.63,-0.11,-1.92,-81.89,0.755,-0.013,0.010,-0.655
8698123.000000,0.003,-0.034,1.007,-0.05,0.14,-0.12,-22.67,29.85,-22.63,-0.11,-1.92,-81.89,0.755,-0.013,0.010,-0.655
8698133.000000,0.002,-0.034,1.010,-0.01,-0.02,-0.04,-22.67,29.85,-22.63,-0.11,-1.92,-81.89,0.755,-0.013,0.010,-0.655
8698143.000000,0.001,-0.034,1.009,0.07,0.16,-0.02,-22.52,29.39,-22.38,-0.11,-1.92,-81.89,0.755,-0.013,0.010,-0.655
8698153.000000,0.003,-0.031,1.007,0.07,-0.02,-0.02,-23.54,30.04,-22.67,-0.11,-1.92,-81.89,0.755,-0.013,0.010,-0.655
8698163.000000,0.003,-0.032,1.010,-0.01,0.04,-0.06,-23.54,30.13,-22.50,-0.11,-1.92,-81.89,0.755,-0.013,0.010,-0.655
8698173.000000,-0.002,-0.035,1.010,0.05,0.16,0.02,-23.85,30.04,-22.88,-0.11,-1.92,-81.89,0.755,-0.013,0.010,-0.655
8698183.000000,0.000,-0.035,1.007,0.09,0.16,-0.00,-23.67,29.85,-22.38,-0.11,-1.92,-81.89,0.755,-0.013,0.010,-0.655
8698193.000000,0.002,-0.034,1.007,-0.01,0.02,-0.00,-23.81,29.54,-22.67,-0.11,-1.92,-81.89,0.755,-0.013,0.010,-0.655
8698203.000000,0.004,-0.034,1.010,0.03,0.04,-0.06,-23.50,29.81,-22.54,-0.11,-1.92,-81.89,0.755,-0.013,0.010,-0.655
8698213.000000,0.003,-0.034,1.007,-0.05,0.00,0.02,-23.43,29.93,-22.71,-0.11,-1.92,-81.89,0.755,-0.013,0.010,-0.655
8698223.000000,0.001,-0.034,1.007,0.07,0.16,0.04,-23.50,29.43,-22.17,-0.11,-1.92,-81.89,0.755,-0.013,0.010,-0.655
8698233.000000,-0.001,-0.035,1.007,0.07,0.04,-0.02,-23.58,29.71,-22.33,-0.11,-1.92,-81.89,0.755,-0.013,0.010,-0.655
8698243.000000,-0.001,-0.032,1.009,0.05,0.04,-0.02,-23.54,29.81,-22.46,-0.11,-1.92,-81.89,0.755,-0.013,0.010,-0.655
8698253.000000,0.001,-0.032,1.006,0.07,0.10,-0.06,-23.81,30.00,-22.54,-0.11,-1.92,-81.89,0.755,-0.013,0.010,-0.655
8698263.000000,0.003,-0.034,1.011,0.05,0.12,0.04,-23.73,29.58,-22.54,-0.11,-1.92,-81.89,0.755,-0.013,0.010,-0.655
8698273.000000,0.003,-0.034,1.009,-0.03,0.00,-0.02,-23.17,29.67,-22.50,-0.11,-1.92,-81.89,0.755,-0.013,0.010,-0.655
8698283.000000,0.002,-0.031,1.013,0.07,0.02,0.10,-23.54,29.93,-22.67,-0.11,-1.92,-81.89,0.755,-0.013,0.010,-0.655
8698293.000000,0.001,-0.034,1.011,0.01,0.14,0.04,-23.50,29.85,-22.67,-0.11,-1.92,-81.89,0.755,-0.013,0.010,-0.655
8698303.000000,-0.001,-0.032,1.007,0.01,0.00,0.06,-23.81,30.08,-22.67,-0.11,-1.92,-81.89,0.755,-0.013,0.010,-0.655
8698313.000000,0.001,-0.034,1.011,0.01,0.25,-0.00,-23.35,29.67,-22.38,-0.11,-1.92,-81.89,0.755,-0.013,0.010,-0.655
8698323.000000,-0.001,-0.034,1.006,-0.01,0.21,-0.04,-23.67,29.43,-22.54,-0.11,-1.92,-81.89,0.755,-0.013,0.010,-0.655
8698333.000000,-0.001,-0.035,1.010,0.07,0.06,-0.00,-23.73,29.81,-22.42,-0.11,-1.92,-81.89,0.755,-0.013,0.010,-0.655
8698343.000000,0.002,-0.032,1.009,0.01,0.14,0.04,-23.77,29.77,-22.83,-0.11,-1.92,-81.89,0.755,-0.013,0.010,-0.655
8698353.000000,0.003,-0.034,1.006,0.05,-0.04,-0.08,-23.81,29.63,-22.38,-0.11,-1.92,-81.89,0.755,-0.013,0.010,-0.655
8698363.000000,0.003,-0.034,1.009,0.05,0.00,-0.02,-24.08,29.35,-22.54,-0.11,-1.92,-81.89,0.755,-0.013,0.010,-0.655
8698373.000000,0.002,-0.032,1.010,0.03,0.06,-0.04,-23.89,29.31,-22.54,-0.11,-1.92,-81.89,0.755,-0.013,0.010,-0.655
8698383.000000,0.002,-0.034,1.006,-0.07,0.18,0.08,-23.89,29.48,-22.63,-0.11,-1.92,-81.89,0.755,-0.013,0.010,-0.655
8698393.000000,0.004,-0.035,1.007,0.03,0.00,-0.08,-24.08,29.27,-22.67,-0.11,-1.92,-81.89,0.755,-0.013,0.010,-0.655
8698403.000000,0.002,-0.034,1.006,-0.01,0.14,0.06,-24.18,30.00,-22.63,-0.11,-1.92,-81.89,0.755,-0.013,0.010,-0.655
8698413.000000,-0.001,-0.035,1.006,-0.09,-0.06,-0.04,-24.08,30.08,-22.38,-0.11,-1.92,-81.89,0.755,-0.013,0.010,-0.655
8698423.000000,0.003,-0.034,1.009,-0.01,0.12,-0.02,-24.23,30.23,-22.71,-0.11,-1.92,-81.89,0.755,-0.013,0.010,-0.655
8698433.000000,0.003,-0.034,1.005,-0.05,0.10,0.04,-24.08,30.00,-22.58,-0.11,-1.92,-81.89,0.755,-0.013,0.010,-0.655
8698443.000000,0.002,-0.034,1.010,0.09,0.06,-0.04,-24.23,30.04,-22.38,-0.11,-1.92,-81.89,0.755,-0.013,0.010,-0.655
8698453.000000,0.002,-0.032,1.010,-0.07,0.23,-0.02,-24.31,30.00,-22.71,-0.11,-1.92,-81.89,0.755,-0.013,0.010,-0.655
8698463.000000,0.002,-0.035,1.007,0.07,0.04,0.04,-24.68,29.67,-22.46,-0.11,-1.92,-81.89,0.755,-0.013,0.010,-0.655
8698473.000000,0.001,-0.036,1.010,0.07,0.12,-0.02,-24.58,29.85,-22.54,-0.11,-1.92,-81.89,0.755,-0.013,0.010,-0.655
8698483.000000,0.001,-0.032,1.011,-0.03,0.08,-0.00,-25.18,30.04,-22.50,-0.11,-1.92,-81.89,0.755,-0.013,0.010,-0.655
8698493.000000,0.002,-0.035,1.013,0.07,0.04,-0.02,-24.58,30.00,-22.46,-0.11,-1.92,-81.89,0.755,-0.013,0.010,-0.655
8698503.000000,0.002,-0.034,1.010,0.01,0.12,-0.08,-24.64,29.17,-22.50,-0.11,-1.92,-81.89,0.755,-0.013,0.010,-0.655
8698513.000000,0.002,-0.035,1.006,0.07,0.12,-0.10,-24.96,29.35,-22.38,-0.11,-1.92,-81.89,0.755,-0.013,0.010,-0.655
8698523.000000,0.003,-0.035,1.003,-0.07,0.16,-0.00,-24.88,29.04,-22.58,-0.11,-1.92,-81.89,0.755,-0.013,0.010,-0.655
8698533.000000,0.000,-0.035,1.006,0.07,0.02,-0.08,-24.73,29.39,-22.33,-0.11,-1.92,-81.89,0.755,-0.013,0.010,-0.655
8698543.000000,0.002,-0.035,1.010,-0.03,0.14,-0.00,-24.58,29.48,-22.33,-0.11,-1.92,-81.89,0.755,-0.013,0.010,-0.655
8698553.000000,0.001,-0.034,1.009,-0.01,0.12,-0.00,-23.50,30.13,-22.71,-0.11,-1.92,-81.89,0.755,-0.013,0.010,-0.655
8698563.000000,0.003,-0.035,1.007,0.07,0.12,0.02,-24.18,29.85,-22.50,-0.11,-1.92,-81.89,0.755,-0.013,0.010,-0.655
8698573.000000,0.006,-0.032,1.007,0.01,0.12,-0.02,-23.85,30.00,-22.67,-0.11,-1.92,-81.89,0.755,-0.013,0.010,-0.655
8698583.000000,0.000,-0.035,1.005,0.07,0.12,-0.10,-23.85,29.67,-23.17,-0.11,-1.92,-81.89,0.755,-0.013,0.010,-0.655
8698593.000000,0.003,-0.032,1.010,0.07,0.23,-0.00,-23.85,30.08,-22.75,-0.11,-1.92,-81.89,0.755,-0.013,0.010,-0.655
8698603.000000,0.003,-0.034,1.007,0.01,0.02,-0.06,-23.08,29.85,-22.54,-0.11,-1.92,-81.89,0.755,-0.013,0.010,-0.655
8698613.000000,0.000,-0.034,1.006,0.07,0.06,-0.00,-23.17,30.27,-22.46,-0.11,-1.92,-81.89,0.755,-0.013,0.010,-0.655
8698623.000000,0.002,-0.036,1.009,-0.03,0.04,-0.02,-23.58,30.08,-22.67,-0.11,-1.92,-81.89,0.755,-0.013,0.010,-0.655
8698633.000000,0.004,-0.035,1.007,0.01,0.10,-0.04,-23.08,30.23,-22.17,-0.11,-1.92,-81.89,0.755,-0.013,0.010,-0.655
8698643.000000,0.001,-0.035,1.011,0.07,0.18,-0.08,-23.02,29.81,-22.50,-0.11,-1.92,-81.89,0.755,-0.013,0.010,-0.655
8698653.000000,0.003,-0.036,1.007,0.05,0.10,0.02,-23.25,30.08,-22.50,-0.11,-1.92,-81.89,0.755,-0.013,0.010,-0.655
8698663.000000,0.001,-0.032,1.010,0.05,0.04,-0.00,-23.17,30.17,-22.33,-0.11,-1.92,-81.89,0.755,-0.013,0.010,-0.655
8698673.000000,0.003,-0.034,1.010,-0.05,0.04,0.06,-23.39,29.77,-22.63,-0.11,-1.92,-81.89,0.755,-0.013,0.010,-0.655
8698683.000000,0.001,-0.032,1.009,-0.01,0.00,-0.06,-23.21,30.00,-22.38,-0.11,-1.92,-81.89,0.755,-0.013,0.010,-0.655
8698693.000000,0.003,-0.034,1.003,-0.03,0.00,0.08,-23.17,30.00,-22.54,-0.11,-1.92,-81.89,0.755,-0.013,0.010,-0.655
8698703.000000,0.001,-0.034,1.009,0.01,0.14,0.02,-23.77,30.23,-22.58,-0.11,-1.92,-81.89,0.755,-0.013,0.010,-0.655
8698713.000000,-0.001,-0.035,1.007,-0.01,0.00,0.02,-24.35,30.46,-22.54,-0.11,-1.92,-81.89,0.755,-0.013,0.010,-0.655
8698723.000000,0.003,-0.032,1.009,0.03,0.16,0.06,-23.73,30.17,-22.42,-0.11,-1.92,-81.89,0.755,-0.013,0.010,-0.655
8698733.000000,0.001,-0.031,1.006,0.07,0.08,-0.00,-24.23,30.23,-22.63,-0.11,-1.92,-81.89,0.755,-0.013,0.010,-0.655
8698743.000000,0.002,-0.032,1.007,-0.03,0.10,-0.04,-24.23,30.31,-22.46,-0.11,-1.92,-81.89,0.755,-0.013,0.010,-0.655
8698753.000000,-0.001,-0.031,1.010,0.09,0.06,-0.04,-24.00,29.58,-22.75,-0.11,-1.92,-81.89,0.755,-0.013,0.010,-0.655
8698763.000000,0.002,-0.035,1.007,0.07,0.02,-0.06,-24.27,29.39,-22.63,-0.11,-1.92,-81.89,0.755,-0.013,0.010,-0.655
8698773.000000,0.002,-0.032,1.010,0.03,0.06,-0.00,-23.73,29.39,-22.46,-0.11,-1.92,-81.89,0.755,-0.013,0.010,-0.655
8698783.000000,0.002,-0.035,1.014,0.07,0.10,0.02,-24.13,29.43,-22.42,-0.11,-1.92,-81.89,0.755,-0.013,0.010,-0.655
8698793.000000,0.004,-0.032,1.010,-0.01,0.02,0.02,-24.13,29.63,-22.96,-0.11,-1.92,-81.89,0.755,-0.013,0.010,-0.655
8698803.000000,0.002,-0.035,1.006,0.03,-0.08,-0.10,-24.35,30.27,-22.46,-0.11,-1.92,-81.89,0.755,-0.013,0.010,-0.655
8698813.000000,0.003,-0.031,1.009,0.03,0.20,0.04,-24.04,30.35,-22.63,-0.11,-1.92,-81.89,0.755,-0.013,0.010,-0.655
8698823.000000,0.003,-0.034,1.011,0.03,0.12,-0.02,-24.42,30.13,-22.25,-0.11,-1.92,-81.89,0.755,-0.013,0.010,-0.655
8698833.000000,0.000,-0.035,1.005,0.05,0.10,-0.08,-24.18,30.50,-22.42,-0.11,-1.92,-81.89,0.755,-0.013,0.010,-0.655
8698843.000000,-0.001,-0.034,1.009,0.01,0.14,0.02,-24.54,29.93,-22.38,-0.11,-1.92,-81.89,0.755,-0.013,0.010,-0.655
8698853.000000,0.003,-0.032,1.006,0.03,0.04,-0.02,-24.08,30.04,-22.42,-0.11,-1.92,-81.89,0.755,-0.013,0.010,-0.655
8698863.000000,0.001,-0.032,1.007,-0.09,-0.04,-0.08,-24.04,29.63,-22.21,-0.11,-1.92,-81.89,0.755,-0.013,0.010,-0.655
8698873.000000,0.002,-0.036,1.007,-0.05,0.12,0.08,-23.81,30.04,-22.13,-0.11,-1.92,-81.89,0.755,-0.013,0.010,-0.655
8698883.000000,0.001,-0.032,1.007,-0.07,0.21,-0.04,-23.77,29.39,-22.58,-0.11,-1.92,-81.89,0.755,-0.013,0.010,-0.655
8698893.000000,0.003,-0.032,1.006,-0.01,0.10,-0.10,-23.39,30.00,-22.54,-0.11,-1.92,-81.89,0.755,-0.013,0.010,-0.655
8698903.000000,0.002,-0.032,1.007,0.07,-0.06,0.04,-24.27,30.23,-22.50,-0.11,-1.92,-81.89,0.755,-0.013,0.010,-0.655
8698913.000000,0.002,-0.034,1.010,0.07,0.06,-0.08,-24.46,30.17,-22.88,-0.11,-1.92,-81.89,0.755,-0.013,0.010,-0.655
8698923.000000,0.002,-0.034,1.009,-0.09,0.08,-0.00,-24.13,30.46,-22.75,-0.11,-1.92,-81.89,0.755,-0.013,0.010,-0.655
8698933.000000,0.001,-0.035,1.010,-0.03,-0.02,-0.08,-24.50,30.31,-22.88,-0.11,-1.92,-81.89,0.755,-0.013,0.010,-0.655
8698943.000000,0.001,-0.031,1.007,-0.01,0.10,0.04,-24.50,30.08,-22.83,-0.11,-1.92,-81.89,0.755,-0.013,0.010,-0.655
8698953.000000,0.002,-0.031,1.007,-0.11,0.18,0.06,-23.13,29.67,-22.54,-0.11,-1.92,-81.89,0.755,-0.013,0.010,-0.655
8698963.000000,0.002,-0.034,1.009,0.03,0.12,-0.04,-23.17,29.43,-22.58,-0.11,-1.92,-81.89,0.755,-0.013,0.010,-0.655
8698973.000000,0.001,-0.034,1.007,0.11,0.10,-0.08,-23.17,29.39,-22.38,-0.11,-1.92,-81.89,0.755,-0.013,0.010,-0.655
8698983.000000,0.003,-0.036,1.009,-0.01,0.18,-0.04,-23.21,29.67,-22.33,-0.11,-1.92,-81.89,0.755,-0.013,0.010,-0.655
8698993.000000,0.001,-0.034,1.010,0.01,0.08,0.02,-23.13,28.98,-22.83,-0.11,-1.92,-81.89,0.755,-0.013,0.010,-0.655
8699003.000000,0.002,-0.032,1.005,-0.03,0.23,-0.00,-23.67,30.23,-22.67,-0.11,-1.92,-81.89,0.755,-0.013,0.010,-0.655
8699013.000000,0.000,-0.034,1.003,0.01,0.02,-0.00,-23.67,29.93,-22.54,-0.11,-1.92,-81.89,0.755,-0.013,0.010,-0.655
8699023.000000,0.002,-0.035,1.006,-0.03,0.14,-0.04,-23.54,29.89,-22.63,-0.11,-1.92,-81.89,0.755,-0.013,0.010,-0.655
8699033.000000,0.002,-0.032,1.007,0.09,0.14,-0.00,-23.73,29.54,-22.75,-0.11,-1.92,-81.89,0.755,-0.013,0.010,-0.655
8699043.000000,0.003,-0.031,1.011,0.07,0.10,0.02,-23.89,29.85,-22.75,-0.11,-1.92,-81.89,0.755,-0.013,0.010,-0.655
8699053.000000,0.003,-0.035,1.006,-0.03,0.00,0.08,-23.89,29.71,-22.63,-0.11,-1.92,-81.89,0.755,-0.013,0.010,-0.655
8699063.000000,0.002,-0.035,1.007,0.03,0.12,-0.04,-24.18,29.67,-22.75,-0.11,-1.92,-81.89,0.755,-0.013,0.010,-0.655
8699073.000000,0.003,-0.034,1.009,0.01,0.10,-0.08,-24.00,30.13,-22.50,-0.11,-1.92,-81.89,0.755,-0.013,0.010,-0.655
8699083.000000,0.003,-0.036,1.010,0.09,0.10,-0.06,-24.31,29.81,-23.04,-0.11,-1.92,-81.89,0.755,-0.013,0.010,-0.655
8699093.000000,-0.001,-0.034,1.011,0.09,0.00,0.02,-24.00,29.93,-22.67,-0.11,-1.92,-81.89,0.755,-0.013,0.010,-0.655
8699103.000000,0.002,-0.034,1.013,0.11,0.08,-0.04,-23.85,29.58,-22.58,-0.11,-1.92,-81.89,0.755,-0.013,0.010,-0.655
8699113.000000,0.004,-0.034,1.011,0.05,0.06,0.02,-23.89,29.43,-22.38,-0.11,-1.92,-81.89,0.755,-0.013,0.010,-0.655
8699123.000000,0.003,-0.034,1.005,0.01,0.10,0.02,-23.96,29.85,-22.38,-0.11,-1.92,-81.89,0.755,-0.013,0.010,-0.655
8699133.000000,0.003,-0.032,1.007,0.07,0.06,-0.04,-23.58,29.39,-22.71,-0.11,-1.92,-81.89,0.755,-0.013,0.010,-0.655
8699143.000000,0.003,-0.035,1.005,0.07,0.00,-0.04,-24.23,29.27,-22.38,-0.11,-1.92,-81.89,0.755,-0.013,0.010,-0.655
8699153.000000,0.004,-0.034,1.011,0.11,0.00,0.08,-24.54,29.81,-22.50,-0.11,-1.92,-81.89,0.755,-0.013,0.010,-0.655
8699163.000000,0.002,-0.034,1.005,0.03,0.20,0.02,-24.13,29.67,-22.25,-0.11,-1.92,-81.89,0.755,-0.013,0.010,-0.655
8699173.000000,0.002,-0.032,1.007,0.03,-0.04,-0.04,-24.31,30.00,-22.67,-0.11,-1.92,-81.89,0.755,-0.013,0.010,-0.655
8699183.000000,0.002,-0.034,1.007,0.09,0.12,-0.08,-24.13,29.67,-22.63,-0.11,-1.92,-81.89,0.755,-0.013,0.010,-0.655
8699193.000000,0.002,-0.032,1.009,-0.05,0.10,-0.02,-24.04,29.67,-22.46,-0.11,-1.92,-81.89,0.755,-0.013,0.010,-0.655
8699203.000000,0.002,-0.035,1.007,-0.05,0.06,-0.06,-22.29,29.63,-22.38,-0.11,-1.92,-81.89,0.755,-0.013,0.010,-0.655
8699213.000000,0.000,-0.035,1.007,0.05,0.12,-0.13,-22.63,29.67,-22.42,-0.11,-1.92,-81.89,0.755,-0.013,0.010,-0.655
8699223.000000,0.003,-0.035,1.007,0.01,0.06,0.02,-22.43,29.81,-22.63,-0.11,-1.92,-81.89,0.755,-0.013,0.010,-0.655
8699233.000000,0.000,-0.034,1.005,0.03,0.08,-0.02,-22.43,29.77,-22.54,-0.11,-1.92,-81.89,0.755,-0.013,0.010,-0.655
8699244.000000,0.000,-0.034,1.006,0.11,0.08,-0.06,-22.52,29.77,-22.42,-0.11,-1.92,-81.89,0.755,-0.013,0.010,-0.655
8699253.000000,0.001,-0.032,1.011,0.09,0.14,0.04,-22.79,29.21,-22.71,-0.11,-1.92,-81.89,0.755,-0.013,0.010,-0.655
8699263.000000,0.000,-0.035,1.007,0.03,-0.08,-0.13,-22.79,29.13,-22.29,-0.11,-1.92,-81.89,0.755,-0.013,0.010,-0.655
8699273.000000,0.002,-0.031,1.009,0.03,0.06,0.04,-22.85,29.17,-22.42,-0.11,-1.92,-81.89,0.755,-0.013,0.010,-0.655
8699283.000000,0.001,-0.035,1.011,0.15,0.16,-0.00,-23.13,29.13,-22.38,-0.11,-1.92,-81.89,0.755,-0.013,0.010,-0.655
8699293.000000,0.003,-0.034,1.009,-0.03,0.12,-0.04,-23.13,29.13,-22.46,-0.11,-1.92,-81.89,0.755,-0.013,0.010,-0.655
8699303.000000,0.003,-0.032,1.013,0.11,0.02,-0.06,-24.00,29.04,-22.63,-0.11,-1.92,-81.89,0.755,-0.013,0.010,-0.655
8699314.000000,0.001,-0.035,1.009,0.03,0.12,-0.04,-23.63,29.35,-22.21,-0.11,-1.92,-81.89,0.755,-0.013,0.010,-0.655
8699324.000000,0.003,-0.036,1.007,0.09,0.08,0.02,-23.67,29.43,-22.42,-0.11,-1.92,-81.89,0.755,-0.013,0.010,-0.655
8699334.000000,0.001,-0.035,1.009,0.07,-0.04,-0.08,-24.23,29.08,-22.42,-0.11,-1.92,-81.89,0.755,-0.013,0.010,-0.655
8699344.000000,0.001,-0.032,1.011,0.01,0.16,-0.02,-24.04,29.48,-22.71,-0.11,-1.92,-81.89,0.755,-0.013,0.010,-0.655
8699354.000000,0.003,-0.034,1.011,-0.01,-0.02,-0.00,-24.54,29.77,-22.54,-0.11,-1.92,-81.89,0.755,-0.013,0.010,-0.655
8699364.000000,0.003,-0.034,1.009,0.01,0.12,-0.02,-24.50,29.93,-22.92,-0.11,-1.92,-81.89,0.755,-0.013,0.010,-0.655
8699374.000000,0.003,-0.035,1.006,0.07,0.12,0.02,-24.35,29.89,-22.88,-0.11,-1.92,-81.89,0.755,-0.013,0.010,-0.655
8699384.000000,0.004,-0.034,1.009,0.01,0.14,0.04,-24.81,29.39,-22.58,-0.11,-1.92,-81.89,0.755,-0.013,0.010,-0.655
8699394.000000,0.006,-0.034,1.009,0.17,0.14,-0.00,-24.27,29.81,-22.79,-0.11,-1.92,-81.89,0.755,-0.013,0.010,-0.655
8699404.000000,0.003,-0.032,1.006,-0.07,0.00,-0.06,-23.81,29.77,-22.75,-0.11,-1.92,-81.89,0.755,-0.013,0.010,-0.655
8699414.000000,0.002,-0.038,1.009,0.09,0.10,0.02,-23.58,29.93,-22.50,-0.11,-1.92,-81.89,0.755,-0.013,0.010,-0.655
8699424.000000,0.002,-0.034,1.007,0.07,0.08,-0.04,-23.63,29.81,-22.63,-0.11,-1.92,-81.89,0.755,-0.013,0.010,-0.655
8699434.000000,-0.001,-0.034,1.007,0.05,0.10,-0.08,-23.63,29.81,-22.75,-0.11,-1.92,-81.89,0.755,-0.013,0.010,-0.655
8699444.000000,0.002,-0.034,1.010,0.07,0.14,-0.00,-24.18,29.67,-22.67,-0.11,-1.92,-81.89,0.755,-0.013,0.010,-0.655
8699454.000000,0.001,-0.032,1.010,0.09,0.06,-0.04,-23.85,29.08,-22.63,-0.11,-1.92,-81.89,0.755,-0.013,0.010,-0.655
8699464.000000,-0.001,-0.036,1.007,0.03,0.14,-0.04,-23.77,29.27,-22.67,-0.11,-1.92,-81.89,0.755,-0.013,0.010,-0.655
8699474.000000,0.004,-0.035,1.009,0.03,0.16,-0.04,-23.67,29.04,-22.67,-0.11,-1.92,-81.89,0.755,-0.013,0.010,-0.655
8699484.000000,0.002,-0.035,1.007,0.05,0.14,-0.00,-23.67,28.81,-22.79,-0.11,-1.92,-81.89,0.755,-0.013,0.010,-0.655
8699494.000000,0.002,-0.038,1.014,-0.01,0.10,-0.04,-23.89,29.27,-22.75,-0.11,-1.92,-81.89,0.755,-0.013,0.010,-0.655
8699504.000000,-0.001,-0.034,1.009,0.09,0.10,-0.04,-24.46,30.13,-22.46,-0.11,-1.92,-81.89,0.755,-0.013,0.010,-0.655
8699514.000000,0.003,-0.036,1.009,0.13,0.10,0.08,-24.64,29.58,-22.46,-0.11,-1.92,-81.89,0.755,-0.013,0.010,-0.655
8699524.000000,0.000,-0.034,1.006,0.09,0.02,-0.04,-24.88,29.43,-22.46,-0.11,-1.92,-81.89,0.755,-0.013,0.010,-0.655
8699534.000000,0.000,-0.035,1.007,-0.13,0.18,-0.04,-24.77,29.58,-22.71,-0.11,-1.92,-81.89,0.755,-0.013,0.010,-0.655
8699544.000000,0.004,-0.032,1.010,-0.05,0.16,-0.04,-24.73,29.85,-22.54,-0.11,-1.92,-81.89,0.755,-0.013,0.010,-0.655
8699554.000000,0.002,-0.034,1.011,0.09,0.02,-0.02,-24.13,29.93,-22.54,-0.11,-1.92,-81.89,0.755,-0.013,0.010,-0.655
8699564.000000,0.001,-0.032,1.009,0.03,0.04,-0.00,-23.96,30.00,-22.75,-0.11,-1.92,-81.89,0.755,-0.013,0.010,-0.655
8699574.000000,0.003,-0.034,1.010,-0.05,0.12,-0.06,-24.18,30.13,-22.79,-0.11,-1.92,-81.89,0.755,-0.013,0.010,-0.655
8699584.000000,0.001,-0.034,1.007,-0.01,0.06,0.02,-24.46,30.04,-22.67,-0.11,-1.92,-81.89,0.755,-0.013,0.010,-0.655
8699594.000000,0.004,-0.034,1.006,-0.01,0.02,-0.02,-24.04,30.00,-23.04,-0.11,-1.92,-81.89,0.755,-0.013,0.010,-0.655
8699604.000000,0.004,-0.034,1.009,-0.01,0.16,-0.00,-24.04,30.00,-23.04,-0.11,-1.92,-81.89,0.755,-0.013,0.010,-0.655
8699614.000000,-0.002,-0.034,1.007,0.05,0.25,-0.00,-24.18,30.00,-22.50,-0.11,-1.92,-81.89,0.755,-0.013,0.010,-0.655
8699624.000000,0.002,-0.035,1.007,0.05,0.18,-0.04,-24.08,30.04,-22.71,-0.11,-1.92,-81.89,0.755,-0.013,0.010,-0.655
8699634.000000,0.002,-0.034,1.003,-0.03,0.14,-0.10,-24.08,30.04,-22.54,-0.11,-1.92,-81.89,0.755,-0.013,0.010,-0.655
8699644.000000,0.002,-0.036,1.005,0.01,0.06,-0.06,-23.96,29.81,-22.75,-0.11,-1.92,-81.89,0.755,-0.013,0.010,-0.655
8699654.000000,0.003,-0.036,1.010,0.03,0.12,-0.06,-23.96,29.81,-22.75,-0.11,-1.92,-81.89,0.755,-0.013,0.010,-0.655
8699664.000000,0.001,-0.032,1.010,0.01,0.06,-0.00,-22.85,29.54,-23.21,-0.11,-1.92,-81.89,0.755,-0.013,0.010,-0.655
8699674.000000,-0.003,-0.035,1.015,0.03,0.10,-0.00,-22.79,29.48,-22.71,-0.11,-1.92,-81.89,0.755,-0.013,0.010,-0.655
8699684.000000,0.003,-0.034,1.010,0.03,0.06,-0.02,-22.79,29.27,-22.67,-0.11,-1.92,-81.89,0.755,-0.013,0.010,-0.655
8699694.000000,0.002,-0.032,1.009,-0.05,0.08,0.04,-22.93,29.67,-22.83,-0.11,-1.92,-81.89,0.755,-0.013,0.010,-0.655
8699704.000000,0.001,-0.031,1.006,-0.01,0.02,-0.04,-22.93,29.67,-22.83,-0.11,-1.92,-81.89,0.755,-0.013,0.010,-0.655
8699714.000000,-0.001,-0.034,1.010,0.01,0.08,0.02,-24.42,29.58,-23.04,-0.11,-1.92,-81.89,0.755,-0.013,0.010,-0.655
8699724.000000,0.000,-0.032,1.005,-0.07,0.02,-0.00,-24.46,29.31,-22.54,-0.11,-1.92,-81.89,0.755,-0.013,0.010,-0.655
8699734.000000,0.003,-0.034,1.005,-0.01,0.14,-0.02,-24.42,29.31,-23.04,-0.11,-1.92,-81.89,0.755,-0.013,0.010,-0.655
8699744.000000,0.004,-0.035,1.007,-0.03,0.06,0.02,-24.54,29.48,-22.67,-0.11,-1.92,-81.89,0.755,-0.013,0.010,-0.655
8699754.000000,0.003,-0.034,1.010,0.01,0.10,0.02,-24.54,29.48,-22.67,-0.11,-1.92,-81.89,0.755,-0.013,0.010,-0.655
8699764.000000,0.002,-0.034,1.007,0.01,0.06,-0.02,-25.14,30.27,-22.54,-0.11,-1.92,-81.89,0.755,-0.013,0.010,-0.655
8699774.000000,0.001,-0.035,1.010,0.05,0.10,-0.00,-24.64,30.08,-22.75,-0.11,-1.92,-81.89,0.755,-0.013,0.010,-0.655
8699784.000000,0.001,-0.032,1.007,-0.01,0.16,-0.08,-24.81,30.77,-22.63,-0.11,-1.92,-81.89,0.755,-0.013,0.010,-0.655
8699794.000000,0.000,-0.035,1.007,0.07,0.12,0.04,-24.77,30.73,-22.67,-0.11,-1.92,-81.89,0.755,-0.013,0.010,-0.655
8699804.000000,0.001,-0.035,1.010,0.05,-0.12,0.02,-24.77,30.73,-22.67,-0.11,-1.92,-81.89,0.755,-0.013,0.010,-0.655
8699814.000000,0.002,-0.034,1.005,0.05,0.06,0.08,-24.31,29.85,-22.63,-0.11,-1.92,-81.89,0.755,-0.013,0.010,-0.655
8699824.000000,0.001,-0.032,1.006,-0.05,0.16,0.02,-24.31,29.85,-22.46,-0.11,-1.92,-81.89,0.755,-0.013,0.010,-0.655
8699834.000000,-0.001,-0.034,1.010,0.07,-0.04,0.04,-24.42,30.04,-22.46,-0.11,-1.92,-81.89,0.755,-0.013,0.010,-0.655
8699844.000000,0.003,-0.032,1.007,0.03,0.12,-0.06,-24.08,29.77,-22.42,-0.11,-1.92,-81.89,0.755,-0.013,0.010,-0.655
8699854.000000,0.004,-0.034,1.007,0.13,0.06,-0.02,-24.08,29.77,-22.42,-0.11,-1.92,-81.89,0.755,-0.013,0.010,-0.655
8699864.000000,0.003,-0.031,1.009,-0.01,0.12,-0.10,-24.73,29.35,-22.75,-0.11,-1.92,-81.89,0.755,-0.013,0.010,-0.655
8699874.000000,0.004,-0.032,1.009,0.03,0.18,-0.04,-25.14,29.13,-22.71,-0.11,-1.92,-81.89,0.755,-0.013,0.010,-0.655
8699884.000000,0.002,-0.035,1.015,0.09,0.14,0.06,-24.77,28.93,-22.75,-0.11,-1.92,-81.89,0.755,-0.013,0.010,-0.655
8699894.000000,0.002,-0.035,1.011,0.01,0.02,0.02,-24.92,28.93,-22.75,-0.11,-1.92,-81.89,0.755,-0.013,0.010,-0.655
8699904.000000,0.002,-0.034,1.011,0.09,-0.10,0.02,-24.92,28.93,-22.75,-0.11,-1.92,-81.89,0.755,-0.013,0.010,-0.655
8699914.000000,0.003,-0.036,1.009,0.11,0.04,0.04,-24.73,30.08,-22.42,-0.11,-1.92,-81.89,0.755,-0.013,0.010,-0.655
8699924.000000,-0.001,-0.034,1.006,0.09,0.00,-0.00,-24.64,30.17,-22.25,-0.11,-1.92,-81.89,0.755,-0.013,0.010,-0.655
8699934.000000,0.003,-0.035,1.009,0.09,0.10,0.02,-24.68,29.81,-22.38,-0.11,-1.92,-81.89,0.755,-0.013,0.010,-0.655
8699944.000000,0.003,-0.035,1.011,0.09,0.04,0.02,-24.50,30.04,-22.38,-0.11,-1.92,-81.89,0.755,-0.013,0.010,-0.655
8699954.000000,0.003,-0.035,1.013,0.07,0.12,-0.00,-24.50,30.04,-22.38,-0.11,-1.92,-81.89,0.755,-0.013,0.010,-0.655
8699964.000000,0.002,-0.035,1.010,0.05,0.06,-0.08,-24.81,30.39,-22.75,-0.11,-1.92,-81.89,0.755,-0.013,0.010,-0.655
8699974.000000,0.002,-0.034,1.007,0.03,0.04,0.02,-24.81,30.39,-22.75,-0.11,-1.92,-81.89,0.755,-0.013,0.010,-0.655
8699984.000000,0.002,-0.034,1.009,0.03,0.12,-0.06,-24.81,30.39,-22.75,-0.11,-1.92,-81.89,0.755,-0.013,0.010,-0.655
8699994.000000,0.001,-0.034,1.009,0.01,0.08,0.04,-24.81,30.39,-22.75,-0.11,-1.92,-81.89,0.755,-0.013,0.010,-0.655
8700004.000000,0.006,-0.032,1.006,0.03,0.10,-0.02,-24.81,30.39,-22.75,-0.11,-1.92,-81.89,0.755,-0.013,0.010,-0.655
8700014.000000,0.002,-0.032,1.009,-0.09,0.06,-0.02,-24.68,29.43,-22.46,-0.11,-1.92,-81.89,0.755,-0.013,0.010,-0.655
8700024.000000,0.003,-0.035,1.011,0.07,0.12,0.02,-24.81,29.27,-22.21,-0.11,-1.92,-81.89,0.755,-0.013,0.010,-0.655
8700034.000000,0.000,-0.034,1.006,0.01,0.08,-0.00,-25.00,29.27,-22.67,-0.11,-1.92,-81.89,0.755,-0.013,0.010,-0.655
8700044.000000,0.003,-0.032,1.010,-0.01,0.10,-0.08,-25.10,29.17,-22.29,-0.11,-1.92,-81.89,0.755,-0.013,0.010,-0.655
8700054.000000,0.002,-0.034,1.006,0.11,0.02,0.02,-24.68,29.21,-22.54,-0.11,-1.92,-81.89,0.755,-0.013,0.010,-0.655
8700064.000000,0.002,-0.032,1.006,-0.13,0.02,0.06,-24.73,29.67,-22.63,-0.11,-1.92,-81.89,0.755,-0.013,0.010,-0.655
8700074.000000,0.002,-0.036,1.006,0.03,0.08,0.08,-25.23,29.67,-22.83,-0.11,-1.92,-81.89,0.755,-0.013,0.010,-0.655
8700084.000000,-0.005,-0.034,1.007,0.05,0.06,-0.06,-24.77,29.71,-22.75,-0.11,-1.92,-81.89,0.755,-0.013,0.010,-0.655
8700094.000000,0.001,-0.031,1.010,0.11,0.10,-0.08,-24.77,30.13,-22.71,-0.11,-1.92,-81.89,0.755,-0.013,0.010,-0.655
8700104.000000,-0.001,-0.034,1.010,-0.01,0.08,0.08,-24.54,29.54,-22.88,-0.11,-1.92,-81.89,0.755,-0.013,0.010,-0.655
8700114.000000,0.002,-0.032,1.010,0.09,0.04,-0.00,-24.13,29.85,-22.58,-0.11,-1.92,-81.89,0.755,-0.013,0.010,-0.655
8700124.000000,0.002,-0.035,1.010,0.07,0.08,-0.06,-23.81,29.43,-22.25,-0.11,-1.92,-81.89,0.755,-0.013,0.010,-0.655
8700134.000000,0.002,-0.032,1.010,-0.01,0.14,-0.02,-24.00,29.63,-22.96,-0.11,-1.92,-81.89,0.755,-0.013,0.010,-0.655
8700144.000000,-0.001,-0.032,1.010,-0.01,0.08,-0.06,-24.04,29.71,-22.33,-0.11,-1.92,-81.89,0.755,-0.013,0.010,-0.655
8700154.000000,0.003,-0.034,1.007,0.11,0.20,0.08,-24.18,29.67,-22.67,-0.11,-1.92,-81.89,0.755,-0.013,0.010,-0.655
8700164.000000,0.007,-0.035,1.009,-0.01,0.08,-0.04,-24.08,29.93,-22.58,-0.11,-1.92,-81.89,0.755,-0.013,0.010,-0.655
8700174.000000,0.003,-0.034,1.003,0.05,0.10,0.04,-23.89,29.81,-22.83,-0.11,-1.92,-81.89,0.755,-0.013,0.010,-0.655
8700184.000000,0.002,-0.034,1.006,0.03,-0.08,0.04,-24.46,29.35,-22.67,-0.11,-1.92,-81.89,0.755,-0.013,0.010,-0.655
8700194.000000,0.003,-0.032,1.007,-0.01,0.12,-0.02,-24.23,29.63,-22.92,-0.11,-1.92,-81.89,0.755,-0.013,0.010,-0.655
8700204.000000,0.004,-0.036,1.009,0.05,0.08,0.02,-24.00,29.93,-22.88,-0.11,-1.92,-81.89,0.755,-0.013,0.010,-0.655
8700214.000000,0.003,-0.032,1.010,-0.03,0.06,-0.04,-24.81,29.63,-22.63,-0.11,-1.92,-81.89,0.755,-0.013,0.010,-0.655
8700224.000000,0.001,-0.035,1.015,0.03,0.14,-0.02,-24.54,29.27,-22.42,-0.11,-1.92,-81.89,0.755,-0.013,0.010,-0.655
8700234.000000,0.002,-0.034,1.009,-0.01,0.02,-0.04,-24.64,29.43,-22.46,-0.11,-1.92,-81.89,0.755,-0.013,0.010,-0.655
8700244.000000,0.004,-0.034,1.006,-0.01,0.14,-0.02,-24.81,29.89,-22.67,-0.11,-1.92,-81.89,0.755,-0.013,0.010,-0.655
8700254.000000,0.003,-0.034,1.010,-0.01,0.02,-0.02,-24.54,29.77,-22.25,-0.11,-1.92,-81.89,0.755,-0.013,0.010,-0.655
8700264.000000,0.003,-0.030,1.005,0.05,0.21,-0.08,-24.31,29.89,-22.63,-0.11,-1.92,-81.89,0.755,-0.013,0.010,-0.655
8700274.000000,0.002,-0.034,1.007,-0.13,0.16,-0.04,-24.18,29.93,-22.58,-0.11,-1.92,-81.89,0.755,-0.013,0.010,-0.655
8700284.000000,-0.001,-0.032,1.009,0.03,0.10,0.02,-24.31,29.67,-22.79,-0.11,-1.92,-81.89,0.755,-0.013,0.010,-0.655
8700294.000000,0.001,-0.035,1.013,0.07,0.12,-0.04,-24.42,29.93,-22.54,-0.11,-1.92,-81.89,0.755,-0.013,0.010,-0.655
8700304.000000,0.002,-0.036,1.010,0.07,0.10,-0.10,-24.27,29.81,-22.38,-0.11,-1.92,-81.89,0.755,-0.013,0.010,-0.655
8700314.000000,0.002,-0.032,1.009,0.11,0.10,-0.08,-24.46,29.85,-22.63,-0.11,-1.92,-81.89,0.755,-0.013,0.010,-0.655
8700324.000000,0.000,-0.036,1.007,-0.03,-0.02,-0.06,-24.64,29.89,-22.58,-0.11,-1.92,-81.89,0.755,-0.013,0.010,-0.655
8700334.000000,0.002,-0.032,1.010,0.03,0.10,0.08,-24.42,29.54,-22.33,-0.11,-1.92,-81.89,0.755,-0.013,0.010,-0.655
8700344.000000,0.006,-0.031,1.010,0.07,0.10,-0.10,-24.35,29.81,-22.71,-0.11,-1.92,-81.89,0.755,-0.013,0.010,-0.655
8700354.000000,0.001,-0.034,1.010,0.03,0.08,-0.06,-24.46,29.81,-22.33,-0.11,-1.92,-81.89,0.755,-0.013,0.010,-0.655
8700364.000000,0.001,-0.032,1.007,-0.09,0.06,0.04,-24.13,29.81,-22.33,-0.11,-1.92,-81.89,0.755,-0.013,0.010,-0.655
8700374.000000,0.002,-0.036,1.006,0.07,0.23,-0.04,-23.67,29.85,-22.54,-0.11,-1.92,-81.89,0.755,-0.013,0.010,-0.655
8700384.000000,0.001,-0.035,1.010,-0.03,0.04,-0.04,-23.85,29.89,-22.25,-0.11,-1.92,-81.89,0.755,-0.013,0.010,-0.655
8700394.000000,0.003,-0.032,1.007,0.05,0.14,-0.08,-23.96,30.17,-22.50,-0.11,-1.92,-81.89,0.755,-0.013,0.010,-0.655
8700404.000000,0.001,-0.032,1.010,0.13,0.06,-0.00,-24.08,30.13,-22.63,-0.11,-1.92,-81.89,0.755,-0.013,0.010,-0.655
8700414.000000,0.002,-0.036,1.010,0.13,0.06,0.02,-24.54,30.17,-22.46,-0.11,-1.92,-81.89,0.755,-0.013,0.010,-0.655
8700424.000000,0.002,-0.034,1.006,0.01,0.08,0.08,-24.77,29.63,-22.17,-0.11,-1.92,-81.89,0.755,-0.013,0.010,-0.655
8700434.000000,0.001,-0.032,1.006,-0.07,0.08,-0.10,-24.73,29.81,-22.58,-0.11,-1.92,-81.89,0.755,-0.013,0.010,-0.655
8700444.000000,0.003,-0.035,1.007,0.13,0.12,-0.00,-24.42,30.13,-22.50,-0.11,-1.92,-81.89,0.755,-0.013,0.010,-0.655
8700454.000000,0.003,-0.034,1.007,0.11,0.06,-0.00,-24.23,29.81,-22.83,-0.11,-1.92,-81.89,0.755,-0.013,0.010,-0.655
8700464.000000,0.002,-0.034,1.007,0.03,0.16,-0.10,-23.54,30.23,-22.33,-0.11,-1.92,-81.89,0.755,-0.013,0.010,-0.655
8700474.000000,0.003,-0.034,1.010,-0.07,0.14,0.06,-23.63,30.63,-22.04,-0.11,-1.92,-81.89,0.755,-0.013,0.010,-0.655
8700484.000000,-0.001,-0.034,1.009,0.01,0.08,-0.04,-23.85,30.50,-22.75,-0.11,-1.92,-81.89,0.755,-0.013,0.010,-0.655
8700494.000000,0.000,-0.035,1.007,0.05,0.06,0.06,-23.67,30.68,-22.50,-0.11,-1.92,-81.89,0.755,-0.013,0.010,-0.655
8700504.000000,0.004,-0.030,1.005,0.11,0.00,0.02,-23.54,30.68,-22.58,-0.11,-1.92,-81.89,0.755,-0.013,0.010,-0.655
8700514.000000,0.002,-0.035,1.011,0.07,0.08,-0.06,-23.81,30.17,-22.58,-0.11,-1.92,-81.89,0.755,-0.013,0.010,-0.655
8700524.000000,0.002,-0.035,1.007,0.09,-0.02,-0.02,-23.96,30.08,-22.71,-0.11,-1.92,-81.89,0.755,-0.013,0.010,-0.655
8700534.000000,0.001,-0.032,1.009,-0.07,0.10,-0.10,-24.08,30.17,-22.71,-0.11,-1.92,-81.89,0.755,-0.013,0.010,-0.655
8700544.000000,0.002,-0.032,1.006,0.05,0.16,-0.04,-24.04,30.04,-22.29,-0.11,-1.92,-81.89,0.755,-0.013,0.010,-0.655
8700554.000000,0.002,-0.035,1.007,0.07,0.02,-0.02,-24.35,30.46,-22.38,-0.11,-1.92,-81.89,0.755,-0.013,0.010,-0.655
8700564.000000,-0.001,-0.035,1.005,0.03,0.06,-0.04,-24.13,30.04,-22.54,-0.11,-1.92,-81.89,0.755,-0.013,0.010,-0.655
8700574.000000,-0.001,-0.038,1.010,0.07,-0.04,0.02,-23.85,29.81,-22.04,-0.11,-1.92,-81.89,0.755,-0.013,0.010,-0.655
8700584.000000,0.004,-0.035,1.009,-0.01,-0.02,-0.04,-23.89,30.39,-22.17,-0.11,-1.92,-81.89,0.755,-0.013,0.010,-0.655
8700594.000000,0.001,-0.035,1.011,-0.01,0.08,0.04,-23.73,30.08,-22.42,-0.11,-1.92,-81.89,0.755,-0.013,0.010,-0.655
8700604.000000,-0.001,-0.036,1.010,0.01,0.02,-0.02,-23.58,30.13,-22.46,-0.11,-1.92,-81.89,0.755,-0.013,0.010,-0.655
8700614.000000,0.003,-0.032,1.013,0.11,0.04,-0.02,-23.31,30.35,-22.54,-0.11,-1.92,-81.89,0.755,-0.013,0.010,-0.655
8700624.000000,0.003,-0.036,1.007,0.05,0.12,0.06,-23.13,30.13,-22.25,-0.11,-1.92,-81.89,0.755,-0.013,0.010,-0.655
8700634.000000,0.004,-0.032,1.006,0.11,0.14,0.10,-23.21,30.04,-22.38,-0.11,-1.92,-81.89,0.755,-0.013,0.010,-0.655
8700644.000000,0.002,-0.034,1.007,-0.03,0.14,-0.00,-23.25,30.23,-22.29,-0.11,-1.92,-81.89,0.755,-0.013,0.010,-0.655
8700654.000000,0.002,-0.034,1.010,0.03,0.06,-0.02,-23.25,30.13,-21.63,-0.11,-1.92,-81.89,0.755,-0.013,0.010,-0.655
8700664.000000,0.001,-0.031,1.006,0.03,0.16,0.02,-23.77,30.13,-22.50,-0.11,-1.92,-81.89,0.755,-0.013,0.010,-0.655
8700674.000000,0.002,-0.034,1.010,-0.03,0.04,-0.04,-23.96,30.31,-22.38,-0.11,-1.92,-81.89,0.755,-0.013,0.010,-0.655
8700684.000000,0.002,-0.032,1.007,-0.03,0.14,0.04,-23.43,30.04,-22.71,-0.11,-1.92,-81.89,0.755,-0.013,0.010,-0.655
8700694.000000,0.001,-0.030,1.006,0.03,0.10,-0.08,-23.73,30.50,-22.75,-0.11,-1.92,-81.89,0.755,-0.013,0.010,-0.655
8700704.000000,0.003,-0.032,1.006,0.07,0.20,-0.00,-23.31,30.39,-22.50,-0.11,-1.92,-81.89,0.755,-0.013,0.010,-0.655
8700714.000000,0.001,-0.035,1.009,0.01,-0.04,-0.10,-23.02,30.17,-22.38,-0.11,-1.92,-81.89,0.755,-0.013,0.010,-0.655
8700724.000000,0.004,-0.036,1.009,-0.03,0.06,-0.04,-23.02,29.48,-22.67,-0.11,-1.92,-81.89,0.755,-0.013,0.010,-0.655
8700734.000000,0.004,-0.034,1.009,0.03,0.18,0.02,-23.08,29.93,-22.58,-0.11,-1.92,-81.89,0.755,-0.013,0.010,-0.655
8700744.000000,0.002,-0.031,1.009,-0.07,0.02,0.04,-22.85,29.71,-22.71,-0.11,-1.92,-81.89,0.755,-0.013,0.010,-0.655
8700754.000000,0.000,-0.036,1.006,0.09,0.04,0.04,-22.98,30.13,-22.63,-0.11,-1.92,-81.89,0.755,-0.013,0.010,-0.655
8700764.000000,0.002,-0.032,1.006,0.05,0.00,-0.00,-23.85,29.71,-22.54,-0.11,-1.92,-81.89,0.755,-0.013,0.010,-0.655
8700774.000000,0.003,-0.034,1.009,0.07,0.18,-0.00,-23.77,29.89,-23.00,-0.11,-1.92,-81.89,0.755,-0.013,0.010,-0.655
8700784.000000,0.002,-0.034,1.010,0.01,0.04,-0.06,-23.67,30.08,-22.88,-0.11,-1.92,-81.89,0.755,-0.013,0.010,-0.655
8700794.000000,0.004,-0.031,1.007,0.01,0.06,0.02,-23.96,29.54,-22.63,-0.11,-1.92,-81.89,0.755,-0.013,0.010,-0.655
8700804.000000,-0.001,-0.031,1.011,0.03,-0.02,-0.06,-23.63,30.08,-22.88,-0.11,-1.92,-81.89,0.755,-0.013,0.010,-0.655
8700814.000000,0.001,-0.034,1.009,0.05,0.08,0.04,-24.81,29.71,-22.67,-0.11,-1.92,-81.89,0.755,-0.013,0.010,-0.655
8700824.000000,-0.001,-0.034,1.007,0.17,0.10,-0.00,-24.77,30.17,-22.58,-0.11,-1.92,-81.89,0.755,-0.013,0.010,-0.655
8700834.000000,0.002,-0.034,1.009,-0.03,0.02,-0.02,-25.14,30.04,-22.46,-0.11,-1.92,-81.89,0.755,-0.013,0.010,-0.655
8700844.000000,0.000,-0.034,1.005,0.07,0.10,-0.02,-24.92,29.81,-22.50,-0.10,-1.92,-81.89,0.755,-0.013,0.010,-0.655
8700854.000000,0.001,-0.034,1.011,-0.01,0.10,-0.06,-24.73,29.77,-22.42,-0.10,-1.92,-81.89,0.755,-0.013,0.010,-0.655
8700864.000000,0.002,-0.034,1.007,0.11,0.06,-0.02,-23.25,30.00,-22.50,-0.10,-1.92,-81.89,0.755,-0.013,0.010,-0.655
8700874.000000,0.003,-0.036,1.007,-0.05,0.12,-0.02,-23.31,29.93,-22.21,-0.10,-1.92,-81.89,0.755,-0.013,0.010,-0.655
8700884.000000,0.004,-0.039,1.014,0.07,0.08,-0.02,-23.50,30.00,-22.88,-0.10,-1.92,-81.89,0.755,-0.013,0.010,-0.655
8700894.000000,0.002,-0.031,1.009,0.01,0.02,0.06,-23.35,29.89,-22.46,-0.10,-1.92,-81.89,0.755,-0.013,0.010,-0.655
8700904.000000,0.002,-0.034,1.010,-0.05,0.12,-0.02,-23.31,30.27,-22.38,-0.11,-1.92,-81.89,0.755,-0.013,0.010,-0.655
8700914.000000,0.002,-0.034,1.011,0.09,0.06,-0.08,-24.08,30.08,-22.54,-0.10,-1.92,-81.89,0.755,-0.013,0.010,-0.655
8700924.000000,0.003,-0.034,1.005,0.03,0.16,-0.08,-24.23,30.00,-22.58,-0.10,-1.92,-81.89,0.755,-0.013,0.010,-0.655
8700934.000000,0.003,-0.032,1.006,-0.03,0.06,-0.04,-24.27,30.00,-22.46,-0.10,-1.92,-81.89,0.755,-0.013,0.010,-0.655
8700944.000000,0.001,-0.032,1.009,0.13,0.12,-0.06,-23.89,30.17,-22.33,-0.10,-1.92,-81.89,0.755,-0.013,0.010,-0.655
8700954.000000,0.000,-0.035,1.006,-0.01,0.04,-0.00,-24.13,30.04,-22.54,-0.10,-1.92,-81.89,0.755,-0.013,0.010,-0.655
8700964.000000,0.002,-0.034,1.007,0.01,0.14,-0.02,-24.04,30.23,-22.67,-0.10,-1.92,-81.89,0.755,-0.013,0.010,-0.655
8700974.000000,0.001,-0.032,1.013,0.03,-0.04,-0.02,-24.04,30.00,-22.38,-0.10,-1.92,-81.89,0.755,-0.013,0.010,-0.655
8700984.000000,0.001,-0.036,1.013,0.03,0.02,-0.06,-23.81,29.89,-22.29,-0.10,-1.92,-81.89,0.755,-0.013,0.010,-0.655
8700994.000000,0.002,-0.034,1.009,0.03,0.16,-0.04,-23.85,30.04,-22.75,-0.10,-1.92,-81.89,0.755,-0.013,0.010,-0.655
8701004.000000,0.003,-0.034,1.007,0.09,0.08,-0.08,-24.04,29.93,-22.54,-0.10,-1.92,-81.89,0.755,-0.013,0.010,-0.655
8701014.000000,0.003,-0.034,1.007,0.01,0.04,-0.04,-24.04,30.17,-22.58,-0.10,-1.92,-81.89,0.755,-0.013,0.010,-0.655
8701024.000000,0.001,-0.034,1.009,-0.07,0.10,-0.06,-23.85,29.93,-22.58,-0.10,-1.92,-81.89,0.755,-0.013,0.010,-0.655
8701034.000000,0.003,-0.034,1.005,-0.01,0.21,0.04,-23.73,30.00,-22.54,-0.10,-1.92,-81.89,0.755,-0.013,0.010,-0.655
8701044.000000,0.002,-0.035,1.007,0.03,0.02,0.04,-23.96,29.39,-22.58,-0.10,-1.92,-81.89,0.755,-0.013,0.010,-0.655
8701054.000000,0.003,-0.032,1.009,-0.07,0.08,-0.04,-23.81,29.67,-22.46,-0.10,-1.92,-81.89,0.755,-0.013,0.010,-0.655
8701064.000000,0.002,-0.032,1.011,0.11,0.08,-0.02,-24.08,29.77,-22.58,-0.10,-1.92,-81.89,0.755,-0.013,0.010,-0.655
8701074.000000,-0.001,-0.035,1.009,0.19,0.06,0.02,-24.50,30.39,-22.46,-0.10,-1.92,-81.89,0.755,-0.013,0.010,-0.655
8701084.000000,0.001,-0.034,1.013,0.07,0.18,0.04,-24.54,30.13,-22.29,-0.10,-1.92,-81.89,0.755,-0.013,0.010,-0.655
8701094.000000,0.000,-0.038,1.006,-0.07,0.14,-0.06,-24.18,30.27,-22.46,-0.10,-1.92,-81.89,0.755,-0.013,0.010,-0.655
8701104.000000,0.002,-0.036,1.007,0.03,-0.04,0.04,-24.08,30.50,-22.67,-0.10,-1.92,-81.89,0.755,-0.013,0.010,-0.655
8701114.000000,0.002,-0.032,1.007,0.03,0.08,-0.02,-24.04,30.27,-22.75,-0.10,-1.92,-81.89,0.755,-0.013,0.010,-0.655
8701124.000000,0.004,-0.034,1.006,-0.03,0.10,-0.00,-23.77,30.13,-22.63,-0.10,-1.92,-81.89,0.755,-0.013,0.010,-0.655
8701134.000000,0.002,-0.031,1.010,0.09,0.18,0.02,-23.96,30.27,-22.67,-0.10,-1.92,-81.89,0.755,-0.013,0.010,-0.655
8701144.000000,0.002,-0.032,1.006,0.07,0.08,-0.10,-24.42,30.04,-22.54,-0.10,-1.92,-81.89,0.755,-0.013,0.010,-0.655
8701154.000000,0.004,-0.032,1.003,0.05,0.00,0.04,-24.23,30.08,-22.63,-0.10,-1.92,-81.89,0.755,-0.013,0.010,-0.655
8701164.000000,0.004,-0.032,1.010,0.01,0.02,-0.12,-24.64,29.85,-22.71,-0.10,-1.92,-81.89,0.755,-0.013,0.010,-0.655
8701174.000000,-0.001,-0.034,1.007,0.07,0.08,0.02,-24.77,29.93,-22.50,-0.10,-1.92,-81.89,0.755,-0.013,0.010,-0.655
8701184.000000,0.001,-0.034,1.010,0.19,0.02,0.02,-24.58,29.39,-22.50,-0.10,-1.92,-81.89,0.755,-0.013,0.010,-0.655
8701194.000000,0.003,-0.035,1.009,-0.01,0.06,-0.00,-24.73,29.58,-22.38,-0.10,-1.92,-81.89,0.755,-0.013,0.010,-0.655
8701204.000000,0.002,-0.035,1.010,0.01,0.10,-0.06,-24.92,29.71,-22.54,-0.10,-1.92,-81.89,0.755,-0.013,0.010,-0.655
8701214.000000,0.001,-0.034,1.009,0.07,0.12,-0.04,-24.18,30.68,-22.46,-0.10,-1.92,-81.89,0.755,-0.013,0.010,-0.655
8701224.000000,0.002,-0.035,1.007,0.05,0.06,-0.04,-24.18,30.54,-22.71,-0.10,-1.92,-81.89,0.755,-0.013,0.010,-0.655
8701234.000000,0.002,-0.034,1.009,0.05,-0.06,-0.02,-24.13,30.58,-22.83,-0.10,-1.92,-81.89,0.755,-0.013,0.010,-0.655
8701244.000000,0.002,-0.034,1.002,-0.05,0.06,0.02,-24.18,30.27,-22.79,-0.10,-1.92,-81.89,0.755,-0.013,0.010,-0.655
8701254.000000,0.000,-0.036,1.006,0.01,0.12,0.02,-24.04,30.85,-22.96,-0.10,-1.92,-81.89,0.755,-0.013,0.010,-0.655
8701264.000000,0.001,-0.034,1.011,0.01,-0.04,-0.06,-24.35,30.23,-22.67,-0.10,-1.92,-81.89,0.755,-0.013,0.010,-0.655
8701274.000000,0.003,-0.035,1.009,0.09,0.10,-0.00,-24.18,30.50,-22.50,-0.10,-1.92,-81.89,0.755,-0.013,0.010,-0.655
8701284.000000,0.001,-0.034,1.009,0.01,0.21,-0.02,-24.18,30.13,-22.63,-0.10,-1.92,-81.89,0.755,-0.013,0.010,-0.655
8701294.000000,0.003,-0.032,1.010,0.03,0.06,0.06,-24.31,30.63,-22.54,-0.10,-1.92,-81.89,0.755,-0.013,0.010,-0.655
8701304.000000,0.001,-0.036,1.013,-0.05,0.08,-0.00,-24.18,30.73,-22.71,-0.10,-1.92,-81.89,0.755,-0.013,0.010,-0.655
8701314.000000,0.000,-0.035,1.007,0.01,0.10,-0.08,-23.63,30.13,-22.63,-0.10,-1.92,-81.89,0.755,-0.013,0.010,-0.655
8701324.000000,0.002,-0.034,1.005,-0.03,0.18,0.02,-24.23,29.85,-22.58,-0.10,-1.92,-81.89,0.755,-0.013,0.010,-0.655
8701334.000000,-0.001,-0.034,1.007,0.05,0.04,-0.08,-24.18,30.23,-22.63,-0.10,-1.92,-81.89,0.755,-0.013,0.010,-0.655
8701344.000000,0.003,-0.032,1.006,0.07,0.20,-0.02,-23.85,29.77,-22.29,-0.10,-1.92,-81.89,0.755,-0.013,0.010,-0.655
8701354.000000,0.003,-0.034,1.011,0.09,-0.08,-0.00,-23.96,30.00,-22.21,-0.10,-1.92,-81.89,0.755,-0.013,0.010,-0.655
8701364.000000,0.002,-0.034,1.010,0.07,0.06,-0.00,-24.77,30.31,-22.63,-0.10,-1.92,-81.89,0.755,-0.013,0.010,-0.655
8701374.000000,0.003,-0.035,1.010,0.17,0.12,-0.02,-24.96,29.77,-22.63,-0.11,-1.92,-81.89,0.755,-0.013,0.010,-0.655
8701384.000000,0.003,-0.035,1.010,-0.05,0.04,-0.02,-25.00,30.00,-22.79,-0.11,-1.92,-81.89,0.755,-0.013,0.010,-0.655
8701394.000000,0.003,-0.035,1.009,-0.05,0.16,-0.08,-25.10,30.13,-22.67,-0.11,-1.92,-81.89,0.755,-0.013,0.010,-0.655
8701404.000000,0.001,-0.034,1.007,-0.01,0.02,-0.10,-25.38,30.08,-22.71,-0.11,-1.92,-81.89,0.755,-0.013,0.010,-0.655
8701414.000000,0.002,-0.032,1.009,0.13,0.02,0.04,-23.67,29.93,-22.75,-0.11,-1.92,-81.89,0.755,-0.013,0.010,-0.655
8701424.000000,0.002,-0.032,1.007,-0.03,0.04,-0.10,-23.63,29.48,-22.83,-0.11,-1.92,-81.89,0.755,-0.013,0.010,-0.655
8701434.000000,0.001,-0.032,1.007,0.07,0.06,-0.00,-23.58,29.71,-22.46,-0.11,-1.92,-81.89,0.755,-0.013,0.010,-0.655
8701444.000000,0.001,-0.034,1.011,0.03,-0.02,-0.00,-23.89,29.85,-22.21,-0.11,-1.92,-81.89,0.755,-0.013,0.010,-0.655
8701454.000000,0.003,-0.032,1.006,0.05,0.08,0.02,-24.23,30.00,-22.42,-0.11,-1.92,-81.89,0.755,-0.013,0.010,-0.655
8701464.000000,0.003,-0.034,1.009,0.05,0.10,-0.02,-24.23,30.00,-22.42,-0.11,-1.92,-81.89,0.755,-0.013,0.010,-0.655
8701474.000000,0.004,-0.034,1.006,0.01,0.02,-0.10,-24.58,29.35,-22.92,-0.11,-1.92,-81.89,0.755,-0.013,0.010,-0.655
8701485.000000,0.001,-0.032,1.007,0.09,0.06,0.04,-24.88,29.71,-22.46,-0.11,-1.92,-81.89,0.755,-0.013,0.010,-0.655
8701495.000000,0.002,-0.031,1.007,-0.07,0.06,0.02,-24.23,29.58,-22.83,-0.11,-1.92,-81.89,0.755,-0.013,0.010,-0.655
8701505.000000,0.001,-0.034,1.007,-0.05,0.00,-0.04,-24.88,29.81,-22.42,-0.10,-1.92,-81.89,0.755,-0.013,0.010,-0.655
8701515.000000,0.002,-0.034,1.007,0.03,0.02,-0.00,-24.88,29.81,-22.42,-0.11,-1.92,-81.89,0.755,-0.013,0.010,-0.655
8701525.000000,0.004,-0.035,1.009,0.15,0.08,-0.00,-24.88,29.31,-23.04,-0.11,-1.92,-81.89,0.755,-0.013,0.010,-0.655
8701535.000000,0.003,-0.035,1.009,-0.05,0.10,0.04,-24.77,30.08,-22.63,-0.10,-1.92,-81.89,0.755,-0.013,0.010,-0.655
8701544.000000,0.002,-0.034,1.010,-0.03,-0.02,-0.02,-24.50,29.93,-22.71,-0.11,-1.92,-81.89,0.755,-0.013,0.010,-0.655
8701554.000000,0.002,-0.030,1.010,0.07,0.12,-0.00,-24.46,29.67,-22.75,-0.11,-1.92,-81.89,0.755,-0.013,0.010,-0.655
8701564.000000,0.002,-0.031,1.006,-0.01,0.00,-0.06,-24.46,29.67,-22.75,-0.11,-1.92,-81.89,0.755,-0.013,0.010,-0.655
8701574.000000,0.002,-0.034,1.006,0.03,0.10,-0.02,-24.92,29.85,-22.58,-0.11,-1.92,-81.89,0.755,-0.013,0.010,-0.655
8701584.000000,0.002,-0.032,1.005,0.07,-0.02,-0.02,-24.64,29.85,-22.46,-0.11,-1.92,-81.89,0.755,-0.013,0.010,-0.655
8701594.000000,0.003,-0.035,1.010,0.01,0.02,-0.06,-25.18,29.85,-22.75,-0.11,-1.92,-81.89,0.755,-0.013,0.010,-0.655
8701604.000000,-0.001,-0.034,1.011,0.05,0.18,-0.04,-24.92,29.85,-22.92,-0.11,-1.92,-81.89,0.755,-0.013,0.010,-0.655
8701614.000000,0.001,-0.035,1.009,0.01,0.10,0.02,-24.92,29.85,-22.92,-0.11,-1.92,-81.89,0.755,-0.013,0.010,-0.655
8701624.000000,0.003,-0.034,1.009,0.13,0.06,-0.02,-24.00,29.71,-22.71,-0.11,-1.92,-81.89,0.755,-0.013,0.010,-0.655
8701634.000000,-0.001,-0.032,1.011,0.07,-0.06,-0.11,-23.89,29.93,-22.46,-0.10,-1.92,-81.89,0.755,-0.013,0.010,-0.655
8701644.000000,0.001,-0.034,1.007,0.05,0.12,0.08,-24.08,29.67,-22.63,-0.10,-1.92,-81.89,0.755,-0.013,0.010,-0.655
8701654.000000,0.003,-0.032,1.005,0.05,0.18,-0.02,-24.13,29.93,-22.54,-0.10,-1.92,-81.89,0.755,-0.013,0.010,-0.655
8701664.000000,0.002,-0.034,1.007,0.09,0.04,0.04,-24.13,29.93,-22.54,-0.10,-1.92,-81.89,0.755,-0.013,0.010,-0.655
8701674.000000,0.002,-0.032,1.005,-0.05,0.06,0.06,-23.54,29.93,-22.71,-0.10,-1.92,-81.89,0.755,-0.013,0.010,-0.655
8701684.000000,0.003,-0.032,1.010,-0.03,0.08,-0.04,-23.63,30.13,-22.13,-0.10,-1.92,-81.89,0.755,-0.013,0.010,-0.655
8701694.000000,0.002,-0.032,1.011,-0.03,-0.02,-0.00,-23.43,30.35,-22.25,-0.10,-1.92,-81.89,0.755,-0.013,0.010,-0.655
8701704.000000,0.002,-0.032,1.011,0.05,0.18,0.04,-23.35,30.00,-22.88,-0.10,-1.92,-81.89,0.755,-0.013,0.010,-0.655
8701714.000000,0.002,-0.032,1.013,0.07,0.10,-0.06,-23.35,30.00,-22.88,-0.10,-1.92,-81.89,0.755,-0.013,0.010,-0.655
8701724.000000,0.003,-0.035,1.007,0.03,-0.02,0.12,-23.21,29.13,-22.33,-0.10,-1.92,-81.89,0.755,-0.013,0.010,-0.655
8701734.000000,0.002,-0.030,1.005,0.03,0.12,0.04,-23.31,28.89,-22.46,-0.10,-1.92,-81.89,0.755,-0.013,0.010,-0.655
8701744.000000,0.003,-0.034,1.007,0.01,0.06,-0.04,-23.31,28.85,-23.00,-0.10,-1.92,-81.89,0.755,-0.013,0.010,-0.655
8701754.000000,0.003,-0.035,1.006,0.01,0.18,-0.04,-23.67,29.04,-22.38,-0.10,-1.92,-81.89,0.755,-0.013,0.010,-0.655
8701764.000000,0.002,-0.032,1.010,0.03,0.06,-0.06,-23.67,29.04,-22.38,-0.10,-1.92,-81.89,0.755,-0.013,0.010,-0.655
8701774.000000,0.001,-0.032,1.007,0.09,0.04,-0.11,-24.04,29.89,-22.54,-0.10,-1.92,-81.89,0.755,-0.013,0.010,-0.655
8701784.000000,0.002,-0.035,1.011,0.03,0.08,0.02,-24.18,30.00,-22.42,-0.11,-1.92,-81.89,0.755,-0.013,0.010,-0.655
8701794.000000,0.000,-0.034,1.006,0.01,0.21,0.02,-24.46,29.85,-22.33,-0.11,-1.92,-81.89,0.755,-0.013,0.010,-0.655
8701804.000000,0.000,-0.035,1.007,0.07,0.08,-0.00,-24.27,29.71,-22.50,-0.11,-1.92,-81.89,0.755,-0.013,0.010,-0.655
8701814.000000,0.001,-0.035,1.009,0.03,0.02,0.12,-24.27,29.71,-22.50,-0.10,-1.92,-81.89,0.755,-0.013,0.010,-0.655
8701824.000000,0.002,-0.035,1.005,-0.03,0.08,-0.06,-23.35,28.63,-22.88,-0.10,-1.92,-81.89,0.755,-0.013,0.010,-0.655
8701834.000000,0.001,-0.030,1.007,0.01,0.08,-0.02,-23.35,28.63,-22.88,-0.10,-1.92,-81.89,0.755,-0.013,0.010,-0.655
8701844.000000,0.002,-0.035,1.009,0.07,0.04,0.02,-23.35,28.63,-22.88,-0.10,-1.92,-81.89,0.755,-0.013,0.010,-0.655
8701854.000000,0.003,-0.032,1.007,0.03,0.10,0.02,-23.35,28.63,-22.88,-0.10,-1.92,-81.89,0.755,-0.013,0.010,-0.655
8701865.000000,-0.001,-0.031,1.006,0.05,0.06,-0.00,-23.35,28.63,-22.88,-0.10,-1.92,-81.89,0.755,-0.013,0.010,-0.655
8701875.000000,0.001,-0.034,1.009,0.05,0.12,-0.02,-24.42,30.08,-22.63,-0.10,-1.92,-81.89,0.755,-0.013,0.010,-0.655
8701885.000000,0.002,-0.035,1.005,0.01,-0.10,-0.04,-24.27,29.67,-22.46,-0.10,-1.92,-81.89,0.755,-0.013,0.010,-0.655
8701895.000000,0.001,-0.032,1.006,0.07,0.10,-0.00,-24.23,30.08,-22.63,-0.10,-1.92,-81.89,0.755,-0.013,0.010,-0.655
8701905.000000,0.001,-0.034,1.009,0.07,0.04,0.04,-24.08,30.27,-22.58,-0.10,-1.92,-81.89,0.755,-0.013,0.010,-0.655
8701915.000000,0.004,-0.034,1.007,-0.05,0.10,-0.04,-24.46,30.46,-22.33,-0.10,-1.92,-81.89,0.755,-0.013,0.010,-0.655
8701925.000000,0.002,-0.035,1.011,0.01,0.02,-0.04,-23.96,29.81,-22.71,-0.10,-1.92,-81.89,0.755,-0.013,0.010,-0.655
8701935.000000,-0.001,-0.032,1.007,0.05,0.06,-0.02,-23.54,29.31,-22.38,-0.11,-1.92,-81.89,0.755,-0.013,0.010,-0.655
8701945.000000,0.000,-0.036,1.007,0.07,0.00,-0.02,-23.89,29.31,-22.79,-0.11,-1.92,-81.89,0.755,-0.013,0.010,-0.655
8701955.000000,-0.001,-0.034,1.005,0.07,0.08,0.04,-23.54,29.67,-22.63,-0.11,-1.92,-81.89,0.755,-0.013,0.010,-0.655
8701965.000000,-0.001,-0.032,1.011,-0.15,-0.02,-0.04,-23.85,29.43,-22.38,-0.10,-1.92,-81.89,0.755,-0.013,0.010,-0.655
8701975.000000,0.001,-0.032,1.009,0.07,0.02,-0.02,-23.77,29.81,-22.83,-0.10,-1.92,-81.89,0.755,-0.013,0.010,-0.655
8701985.000000,0.002,-0.032,1.007,-0.05,-0.02,-0.02,-23.77,29.39,-22.71,-0.10,-1.92,-81.89,0.755,-0.013,0.010,-0.655
8701995.000000,0.001,-0.034,1.010,0.01,0.04,-0.02,-23.73,29.89,-21.96,-0.11,-1.92,-81.89,0.755,-0.013,0.010,-0.655
8702005.000000,-0.002,-0.032,1.010,0.07,0.08,0.02,-23.63,29.48,-22.67,-0.10,-1.92,-81.89,0.755,-0.013,0.010,-0.655
8702015.000000,0.003,-0.034,1.011,0.13,0.02,-0.02,-23.50,29.21,-22.29,-0.10,-1.92,-81.89,0.755,-0.013,0.010,-0.655
8702025.000000,0.001,-0.035,1.010,0.01,0.00,0.08,-23.25,30.08,-22.54,-0.10,-1.92,-81.89,0.755,-0.013,0.010,-0.655
8702035.000000,0.002,-0.032,1.005,0.05,0.12,-0.00,-23.58,30.13,-22.58,-0.10,-1.92,-81.89,0.755,-0.013,0.010,-0.655
8702045.000000,0.002,-0.038,1.011,-0.01,0.12,-0.02,-23.89,30.04,-22.54,-0.10,-1.92,-81.89,0.755,-0.013,0.010,-0.655
8702055.000000,0.004,-0.032,1.005,-0.05,0.18,-0.04,-23.50,30.39,-22.79,-0.10,-1.92,-81.89,0.755,-0.013,0.010,-0.655
8702065.000000,0.002,-0.032,1.009,0.07,0.12,-0.08,-23.35,29.89,-22.92,-0.10,-1.92,-81.89,0.755,-0.013,0.010,-0.655
8702075.000000,-0.001,-0.034,1.015,-0.01,0.14,-0.02,-23.31,30.17,-22.67,-0.10,-1.92,-81.89,0.755,-0.013,0.010,-0.655
8702085.000000,0.002,-0.031,1.010,0.05,0.06,-0.06,-23.13,30.17,-22.79,-0.10,-1.92,-81.89,0.755,-0.013,0.010,-0.655
8702095.000000,0.003,-0.031,1.005,0.05,0.14,0.06,-23.73,30.27,-22.63,-0.10,-1.92,-81.89,0.755,-0.013,0.010,-0.655
8702105.000000,0.002,-0.032,1.009,0.01,0.06,-0.00,-23.58,30.08,-22.50,-0.10,-1.92,-81.89,0.755,-0.013,0.010,-0.655
8702115.000000,0.004,-0.031,1.007,0.11,-0.02,-0.00,-23.21,30.00,-22.71,-0.10,-1.92,-81.89,0.755,-0.013,0.010,-0.655
8702125.000000,0.003,-0.034,1.007,0.05,0.06,0.02,-23.81,30.17,-22.50,-0.10,-1.92,-81.89,0.755,-0.013,0.010,-0.655
8702135.000000,-0.001,-0.035,1.006,-0.01,0.00,-0.02,-23.81,30.04,-22.92,-0.10,-1.92,-81.89,0.755,-0.013,0.010,-0.655
8702145.000000,0.003,-0.034,1.003,0.05,0.14,-0.00,-23.81,30.31,-22.83,-0.10,-1.92,-81.89,0.755,-0.013,0.010,-0.655
8702155.000000,0.001,-0.031,1.007,-0.03,0.06,-0.04,-24.00,30.27,-22.75,-0.10,-1.92,-81.89,0.755,-0.013,0.010,-0.655
8702165.000000,-0.001,-0.031,1.010,0.03,0.08,-0.02,-23.77,30.31,-22.71,-0.11,-1.92,-81.89,0.755,-0.013,0.010,-0.655
8702175.000000,0.003,-0.032,1.007,0.05,0.14,0.04,-24.00,30.04,-22.50,-0.10,-1.92,-81.89,0.755,-0.013,0.010,-0.655
8702185.000000,0.001,-0.034,1.010,-0.01,0.08,0.02,-23.63,30.23,-22.67,-0.10,-1.92,-81.89,0.755,-0.013,0.010,-0.655
8702195.000000,0.001,-0.031,1.009,-0.05,0.06,0.06,-23.89,29.93,-22.92,-0.10,-1.92,-81.89,0.755,-0.013,0.010,-0.655
8702205.000000,-0.001,-0.035,1.009,0.09,0.10,-0.04,-23.77,29.93,-22.58,-0.10,-1.92,-81.89,0.755,-0.013,0.010,-0.655
8702215.000000,-0.001,-0.032,1.007,0.01,0.02,-0.02,-24.04,29.81,-22.54,-0.10,-1.92,-81.89,0.755,-0.013,0.010,-0.655
8702225.000000,0.001,-0.034,1.010,0.05,0.08,-0.10,-23.96,29.93,-22.63,-0.10,-1.92,-81.89,0.755,-0.013,0.010,-0.655
8702235.000000,0.002,-0.034,1.009,0.07,0.10,-0.00,-24.27,29.85,-22.67,-0.10,-1.92,-81.89,0.755,-0.013,0.010,-0.655
8702245.000000,0.001,-0.035,1.010,0.13,0.06,0.02,-23.85,29.63,-22.67,-0.10,-1.92,-81.89,0.755,-0.013,0.010,-0.655
8702255.000000,0.004,-0.034,1.006,0.05,-0.06,-0.04,-23.77,29.77,-22.88,-0.10,-1.92,-81.89,0.755,-0.013,0.010,-0.655
8702265.000000,0.003,-0.034,1.007,0.01,0.18,-0.02,-23.81,29.63,-22.33,-0.10,-1.92,-81.89,0.755,-0.013,0.010,-0.655
8702275.000000,0.001,-0.034,1.009,0.11,0.04,0.10,-23.43,30.27,-22.50,-0.10,-1.92,-81.89,0.755,-0.013,0.010,-0.655
8702285.000000,0.001,-0.035,1.009,-0.07,0.06,-0.04,-23.21,30.31,-22.33,-0.11,-1.92,-81.89,0.755,-0.013,0.010,-0.655
8702295.000000,-0.001,-0.035,1.010,0.07,0.06,-0.00,-23.73,30.27,-22.88,-0.11,-1.92,-81.89,0.755,-0.013,0.010,-0.655
8702305.000000,0.002,-0.035,1.010,0.07,0.18,0.02,-23.50,29.93,-22.75,-0.10,-1.92,-81.89,0.755,-0.013,0.010,-0.655
8702315.000000,-0.001,-0.034,1.013,0.05,0.10,0.02,-23.85,30.04,-22.67,-0.10,-1.92,-81.89,0.755,-0.013,0.010,-0.655
8702325.000000,0.002,-0.032,1.009,0.01,0.04,0.06,-23.25,29.71,-22.54,-0.10,-1.92,-81.89,0.755,-0.013,0.010,-0.655
8702335.000000,0.003,-0.034,1.005,0.07,0.08,0.02,-23.17,29.85,-22.63,-0.10,-1.92,-81.89,0.755,-0.013,0.010,-0.655
8702345.000000,0.003,-0.032,1.007,0.07,0.00,-0.04,-23.08,30.00,-22.54,-0.10,-1.92,-81.89,0.755,-0.013,0.010,-0.655
8702355.000000,0.003,-0.036,1.009,0.17,0.10,-0.04,-22.85,29.93,-22.79,-0.10,-1.92,-81.89,0.755,-0.013,0.010,-0.655
8702365.000000,0.002,-0.034,1.010,0.07,-0.02,0.06,-22.71,29.81,-22.71,-0.10,-1.92,-81.89,0.755,-0.013,0.010,-0.655
8702375.000000,0.002,-0.035,1.006,0.01,0.10,-0.02,-23.77,29.77,-22.75,-0.10,-1.92,-81.89,0.755,-0.013,0.010,-0.655
8702385.000000,0.003,-0.035,1.010,0.07,0.06,-0.02,-24.08,29.54,-22.75,-0.10,-1.92,-81.89,0.755,-0.013,0.010,-0.655
8702395.000000,0.001,-0.032,1.010,-0.03,-0.02,0.04,-23.89,29.54,-22.83,-0.10,-1.92,-81.89,0.755,-0.013,0.010,-0.655
8702405.000000,0.003,-0.034,1.007,0.03,0.06,-0.00,-23.58,29.93,-22.96,-0.10,-1.92,-81.89,0.755,-0.013,0.010,-0.655
8702415.000000,0.002,-0.034,1.011,0.05,0.08,0.04,-23.85,29.48,-22.88,-0.10,-1.92,-81.89,0.755,-0.013,0.010,-0.655
8702425.000000,0.000,-0.031,1.003,-0.01,0.06,-0.15,-22.21,30.04,-22.71,-0.10,-1.92,-81.89,0.755,-0.013,0.010,-0.655
8702435.000000,0.004,-0.034,1.009,0.05,0.02,-0.00,-22.06,30.17,-22.63,-0.10,-1.92,-81.89,0.755,-0.013,0.010,-0.655
8702445.000000,-0.002,-0.035,1.011,0.05,0.08,-0.06,-22.10,29.67,-22.58,-0.10,-1.92,-81.89,0.755,-0.013,0.010,-0.655
8702455.000000,0.002,-0.035,1.013,0.03,0.08,-0.02,-22.33,29.77,-22.79,-0.10,-1.92,-81.89,0.755,-0.013,0.010,-0.655
8702465.000000,0.004,-0.034,1.006,0.05,0.18,0.08,-21.98,30.23,-22.58,-0.10,-1.92,-81.89,0.755,-0.013,0.010,-0.655
8702475.000000,-0.001,-0.035,1.011,0.09,0.12,0.04,-23.39,29.17,-22.79,-0.11,-1.92,-81.89,0.755,-0.013,0.010,-0.655
8702485.000000,0.002,-0.035,1.010,-0.01,0.06,-0.02,-23.17,29.31,-22.63,-0.11,-1.92,-81.89,0.755,-0.013,0.010,-0.655
8702495.000000,0.001,-0.034,1.009,-0.01,0.12,-0.02,-23.25,29.48,-22.67,-0.10,-1.92,-81.89,0.755,-0.013,0.010,-0.655
8702505.000000,0.001,-0.032,1.007,0.05,0.08,-0.02,-23.21,29.43,-22.67,-0.10,-1.92,-81.89,0.755,-0.013,0.010,-0.655
8702515.000000,0.002,-0.034,1.010,0.01,0.04,-0.04,-23.39,29.63,-22.83,-0.10,-1.92,-81.89,0.755,-0.013,0.010,-0.655
8702525.000000,0.002,-0.032,1.007,0.01,0.10,-0.00,-23.31,30.08,-22.58,-0.10,-1.92,-81.89,0.755,-0.013,0.010,-0.655
8702535.000000,0.003,-0.034,1.010,-0.01,0.16,-0.02,-23.50,30.17,-22.75,-0.10,-1.92,-81.89,0.755,-0.013,0.010,-0.655
8702545.000000,0.004,-0.032,1.011,-0.07,0.04,-0.00,-23.77,29.77,-22.50,-0.10,-1.92,-81.89,0.755,-0.013,0.010,-0.655
8702555.000000,0.004,-0.034,1.007,-0.03,0.23,-0.06,-24.04,29.85,-22.46,-0.10,-1.92,-81.89,0.755,-0.013,0.010,-0.655
8702565.000000,0.001,-0.032,1.014,-0.03,0.04,-0.02,-24.00,29.81,-22.63,-0.10,-1.92,-81.89,0.755,-0.013,0.010,-0.655
8702575.000000,0.001,-0.036,1.011,0.01,-0.06,0.02,-23.08,29.67,-22.88,-0.10,-1.92,-81.89,0.755,-0.013,0.010,-0.655
8702585.000000,0.002,-0.034,1.010,-0.03,0.08,0.02,-22.98,30.04,-22.46,-0.10,-1.92,-81.89,0.755,-0.013,0.010,-0.655
8702595.000000,0.001,-0.035,1.010,0.03,0.10,-0.08,-22.85,29.85,-22.58,-0.10,-1.92,-81.89,0.755,-0.013,0.010,-0.655
8702605.000000,0.001,-0.036,1.010,0.05,0.02,-0.06,-23.08,29.81,-22.21,-0.10,-1.92,-81.89,0.755,-0.013,0.010,-0.655
8702615.000000,0.003,-0.035,1.005,0.11,0.10,-0.00,-23.17,29.71,-22.42,-0.10,-1.92,-81.89,0.755,-0.013,0.010,-0.655
8702625.000000,0.002,-0.032,1.005,-0.09,-0.02,-0.00,-23.77,29.89,-22.71,-0.10,-1.92,-81.89,0.755,-0.013,0.010,-0.655
8702635.000000,0.003,-0.034,1.007,0.11,0.14,0.06,-23.67,29.77,-22.67,-0.10,-1.92,-81.89,0.755,-0.013,0.010,-0.655
8702645.000000,0.002,-0.034,1.007,0.03,-0.04,-0.02,-23.89,29.89,-22.79,-0.10,-1.92,-81.89,0.755,-0.013,0.010,-0.655
8702655.000000,0.000,-0.035,1.006,0.01,0.00,0.02,-23.43,29.77,-22.63,-0.10,-1.92,-81.89,0.755,-0.013,0.010,-0.655
8702665.000000,0.003,-0.035,1.007,0.03,0.10,-0.12,-23.63,30.00,-22.67,-0.10,-1.92,-81.89,0.755,-0.013,0.010,-0.655
8702675.000000,0.001,-0.032,1.009,-0.03,-0.02,-0.00,-23.81,30.27,-22.83,-0.10,-1.92,-81.89,0.755,-0.013,0.010,-0.655
8702685.000000,0.003,-0.034,1.005,0.01,0.04,-0.04,-23.67,30.39,-23.04,-0.10,-1.92,-81.89,0.755,-0.013,0.010,-0.655
8702695.000000,0.002,-0.034,1.009,0.11,0.16,-0.08,-23.73,30.58,-23.13,-0.10,-1.92,-81.89,0.755,-0.013,0.010,-0.655
8702705.000000,0.003,-0.034,1.009,0.05,0.10,-0.04,-24.00,30.39,-22.88,-0.10,-1.92,-81.89,0.755,-0.013,0.010,-0.655
8702715.000000,0.004,-0.034,1.002,0.01,0.06,-0.08,-23.81,30.39,-22.88,-0.10,-1.92,-81.89,0.755,-0.013,0.010,-0.655
8702725.000000,0.002,-0.034,1.005,-0.03,0.08,0.02,-23.81,29.85,-22.71,-0.10,-1.92,-81.89,0.755,-0.013,0.010,-0.655
8702735.000000,0.002,-0.034,1.011,-0.01,0.02,0.02,-23.35,29.89,-22.83,-0.10,-1.92,-81.89,0.755,-0.013,0.010,-0.655
8702745.000000,0.003,-0.034,1.006,-0.17,0.14,-0.06,-23.25,29.67,-22.75,-0.10,-1.92,-81.89,0.755,-0.013,0.010,-0.655
8702755.000000,0.002,-0.031,1.010,0.01,0.04,-0.06,-23.73,30.23,-22.83,-0.10,-1.92,-81.89,0.755,-0.013,0.010,-0.655
8702765.000000,0.002,-0.032,1.006,0.05,0.00,-0.00,-23.39,29.93,-22.92,-0.10,-1.92,-81.89,0.755,-0.013,0.010,-0.655
8702775.000000,0.003,-0.035,1.013,-0.11,-0.08,0.02,-22.63,30.04,-22.88,-0.10,-1.92,-81.89,0.755,-0.013,0.010,-0.655
8702785.000000,0.001,-0.034,1.011,0.05,0.12,-0.04,-22.29,30.13,-22.67,-0.10,-1.92,-81.89,0.755,-0.013,0.010,-0.655
8702795.000000,0.000,-0.036,1.006,-0.01,0.04,0.02,-22.43,29.67,-22.58,-0.10,-1.92,-81.89,0.755,-0.013,0.010,-0.655
8702805.000000,0.001,-0.034,1.010,0.11,0.18,-0.02,-22.39,30.00,-22.58,-0.10,-1.92,-81.89,0.755,-0.013,0.010,-0.655
8702815.000000,0.000,-0.036,1.006,-0.01,0.14,-0.10,-22.56,30.08,-23.13,-0.10,-1.92,-81.89,0.755,-0.013,0.010,-0.655
8702825.000000,0.003,-0.032,1.007,0.05,0.10,0.04,-24.18,29.67,-22.63,-0.10,-1.92,-81.89,0.755,-0.013,0.010,-0.655
8702835.000000,0.004,-0.035,1.006,0.01,0.21,0.02,-23.81,29.58,-22.88,-0.10,-1.92,-81.89,0.755,-0.013,0.010,-0.655
8702845.000000,-0.001,-0.035,1.009,0.07,0.06,0.04,-23.73,29.77,-22.46,-0.10,-1.92,-81.89,0.755,-0.013,0.010,-0.655
8702855.000000,0.003,-0.034,1.009,0.03,-0.04,-0.06,-24.08,30.00,-22.42,-0.10,-1.92,-81.89,0.755,-0.013,0.010,-0.655
8702865.000000,0.003,-0.035,1.010,-0.03,0.00,0.04,-23.96,29.58,-22.79,-0.10,-1.92,-81.89,0.755,-0.013,0.010,-0.655
8702875.000000,0.002,-0.035,1.011,0.05,0.12,-0.00,-24.13,29.77,-22.71,-0.10,-1.92,-81.89,0.755,-0.013,0.010,-0.655
8702885.000000,0.003,-0.032,1.009,0.09,0.08,-0.06,-24.18,29.27,-22.42,-0.10,-1.92,-81.89,0.755,-0.013,0.010,-0.655
8702895.000000,0.003,-0.031,1.010,0.07,0.10,0.06,-24.18,29.27,-22.58,-0.10,-1.92,-81.89,0.755,-0.013,0.010,-0.655
8702905.000000,0.001,-0.032,1.010,0.01,-0.02,0.04,-24.04,29.58,-22.71,-0.10,-1.92,-81.89,0.755,-0.013,0.010,-0.655
8702915.000000,0.003,-0.035,1.010,0.11,0.02,0.06,-24.35,29.43,-22.75,-0.10,-1.92,-81.89,0.755,-0.013,0.010,-0.655
8702925.000000,0.001,-0.034,1.010,0.07,0.00,-0.02,-24.13,29.08,-22.88,-0.10,-1.92,-81.89,0.755,-0.013,0.010,-0.655
8702935.000000,0.002,-0.035,1.005,-0.01,0.10,0.02,-24.08,28.43,-22.75,-0.10,-1.92,-81.89,0.755,-0.013,0.010,-0.655
8702945.000000,0.002,-0.035,1.009,0.07,0.14,-0.02,-24.13,28.93,-23.04,-0.10,-1.92,-81.89,0.755,-0.013,0.010,-0.655
8702955.000000,0.003,-0.035,1.011,-0.01,0.18,-0.06,-24.42,28.58,-22.67,-0.10,-1.92,-81.89,0.755,-0.013,0.010,-0.655
8702965.000000,0.004,-0.034,1.010,0.07,0.08,-0.02,-24.27,28.89,-22.67,-0.10,-1.92,-81.89,0.755,-0.013,0.010,-0.655
8702975.000000,0.002,-0.034,1.007,-0.03,0.08,0.04,-24.31,29.89,-22.50,-0.10,-1.92,-81.89,0.755,-0.013,0.010,-0.655
8702985.000000,0.002,-0.034,1.006,-0.01,0.02,0.08,-24.50,30.08,-22.67,-0.10,-1.92,-81.89,0.755,-0.013,0.010,-0.655
8702995.000000,0.001,-0.031,1.014,0.05,0.14,-0.02,-24.92,30.08,-22.88,-0.10,-1.92,-81.89,0.755,-0.013,0.010,-0.655
8703005.000000,0.004,-0.034,1.006,-0.05,0.04,-0.04,-24.18,30.04,-23.04,-0.10,-1.92,-81.89,0.755,-0.013,0.010,-0.655
8703015.000000,0.004,-0.034,1.007,0.13,0.14,-0.13,-24.77,30.04,-22.83,-0.10,-1.92,-81.89,0.755,-0.013,0.010,-0.655
8703025.000000,0.002,-0.035,1.006,0.11,0.08,-0.02,-23.54,29.63,-22.79,-0.10,-1.92,-81.89,0.755,-0.013,0.010,-0.655
8703035.000000,0.004,-0.031,1.007,-0.01,0.02,-0.08,-23.77,29.54,-22.67,-0.10,-1.92,-81.89,0.755,-0.013,0.010,-0.655
8703045.000000,0.002,-0.032,1.007,0.01,0.04,0.10,-23.73,29.48,-22.71,-0.10,-1.92,-81.89,0.755,-0.013,0.010,-0.655
8703055.000000,0.002,-0.035,1.011,0.03,0.04,-0.04,-23.73,29.89,-22.88,-0.10,-1.92,-81.89,0.755,-0.013,0.010,-0.655
8703065.000000,-0.001,-0.034,1.011,0.05,0.02,0.02,-23.39,29.54,-22.54,-0.10,-1.92,-81.89,0.755,-0.013,0.010,-0.655
8703075.000000,0.004,-0.032,1.006,-0.01,0.08,-0.10,-23.43,29.71,-22.92,-0.10,-1.92,-81.89,0.755,-0.013,0.010,-0.655
8703085.000000,0.004,-0.035,1.009,-0.01,0.06,-0.00,-23.67,30.00,-22.63,-0.10,-1.92,-81.89,0.755,-0.013,0.010,-0.655
8703095.000000,0.003,-0.036,1.010,0.03,0.12,-0.00,-23.50,29.63,-22.67,-0.10,-1.92,-81.89,0.755,-0.013,0.010,-0.655
8703105.000000,0.003,-0.035,1.005,-0.01,0.02,-0.04,-23.54,29.93,-22.50,-0.10,-1.92,-81.89,0.755,-0.013,0.010,-0.655
8703115.000000,0.002,-0.034,1.010,0.13,0.10,-0.04,-24.08,29.81,-22.79,-0.10,-1.92,-81.89,0.755,-0.013,0.010,-0.655
8703125.000000,0.001,-0.034,1.009,0.05,0.23,0.04,-24.27,30.50,-22.88,-0.10,-1.92,-81.89,0.755,-0.013,0.010,-0.655
8703135.000000,0.002,-0.032,1.007,0.01,0.14,-0.02,-23.85,30.50,-22.96,-0.10,-1.92,-81.89,0.755,-0.013,0.010,-0.655
8703145.000000,0.002,-0.032,1.006,0.01,0.04,-0.02,-24.27,30.54,-22.54,-0.10,-1.92,-81.89,0.755,-0.013,0.010,-0.655
8703155.000000,0.004,-0.034,1.010,0.03,0.06,0.04,-24.27,30.46,-22.71,-0.10,-1.92,-81.89,0.755,-0.013,0.010,-0.655
8703165.000000,0.003,-0.034,1.005,0.01,0.10,0.08,-24.04,30.54,-22.83,-0.10,-1.92,-81.89,0.755,-0.013,0.010,-0.655
8703175.000000,0.001,-0.034,1.010,-0.01,0.04,-0.02,-24.50,29.89,-22.67,-0.10,-1.92,-81.89,0.755,-0.013,0.010,-0.655
8703185.000000,0.002,-0.036,1.009,0.01,0.21,0.02,-24.04,30.00,-22.29,-0.10,-1.92,-81.89,0.755,-0.013,0.010,-0.655
8703195.000000,0.004,-0.032,1.010,0.01,-0.04,-0.04,-24.13,29.81,-22.46,-0.10,-1.92,-81.89,0.755,-0.013,0.010,-0.655
8703205.000000,0.003,-0.034,1.010,0.01,0.16,-0.02,-24.35,30.17,-22.71,-0.10,-1.92,-81.89,0.755,-0.013,0.010,-0.655
8703215.000000,0.001,-0.032,1.011,0.01,0.16,0.04,-24.23,29.85,-22.75,-0.10,-1.92,-81.89,0.755,-0.013,0.010,-0.655
8703225.000000,0.002,-0.035,1.010,0.03,0.08,-0.10,-24.35,29.21,-22.63,-0.10,-1.92,-81.89,0.755,-0.013,0.010,-0.655
8703235.000000,0.003,-0.032,1.007,0.01,0.16,-0.00,-24.58,29.17,-23.00,-0.10,-1.92,-81.89,0.755,-0.013,0.010,-0.655
8703245.000000,0.000,-0.031,1.005,0.03,0.20,-0.00,-24.54,28.93,-22.96,-0.10,-1.92,-81.89,0.755,-0.013,0.010,-0.655
8703255.000000,-0.001,-0.032,1.011,0.05,0.06,-0.04,-24.54,28.75,-22.67,-0.10,-1.92,-81.89,0.755,-0.013,0.010,-0.655
8703265.000000,0.001,-0.035,1.013,-0.01,0.10,-0.00,-24.50,29.08,-23.13,-0.10,-1.92,-81.89,0.755,-0.013,0.010,-0.655
8703275.000000,0.002,-0.035,1.006,0.05,-0.02,-0.08,-23.85,29.71,-22.67,-0.10,-1.92,-81.89,0.755,-0.013,0.010,-0.655
8703285.000000,0.004,-0.035,1.007,0.05,0.04,0.04,-24.00,29.43,-22.58,-0.10,-1.92,-81.89,0.755,-0.013,0.010,-0.655
8703295.000000,0.003,-0.034,1.010,0.05,0.25,-0.02,-23.67,29.63,-22.83,-0.10,-1.92,-81.89,0.755,-0.013,0.010,-0.655
8703305.000000,0.002,-0.038,1.005,0.01,0.08,-0.08,-23.63,29.67,-22.71,-0.10,-1.92,-81.89,0.755,-0.013,0.010,-0.655
8703315.000000,0.004,-0.035,1.009,0.07,0.10,-0.00,-23.77,29.63,-22.71,-0.10,-1.92,-81.89,0.755,-0.013,0.010,-0.655
8703325.000000,0.004,-0.034,1.010,0.07,0.12,-0.06,-24.23,29.85,-22.67,-0.10,-1.92,-81.89,0.755,-0.013,0.010,-0.655
8703335.000000,0.003,-0.032,1.009,0.09,0.08,0.04,-23.85,29.71,-22.83,-0.10,-1.92,-81.89,0.755,-0.013,0.010,-0.655
8703345.000000,0.003,-0.035,1.003,-0.01,0.12,-0.00,-23.81,29.81,-22.71,-0.10,-1.92,-81.89,0.755,-0.013,0.010,-0.655
8703355.000000,0.002,-0.035,1.007,-0.01,0.14,0.06,-23.81,29.71,-22.92,-0.10,-1.92,-81.89,0.755,-0.013,0.010,-0.655
8703365.000000,0.003,-0.035,1.009,0.05,-0.02,-0.00,-23.81,29.77,-22.71,-0.10,-1.92,-81.89,0.755,-0.013,0.010,-0.655
8703375.000000,0.002,-0.034,1.010,0.11,0.14,-0.06,-23.81,29.77,-22.71,-0.10,-1.92,-81.89,0.755,-0.013,0.010,-0.655
8703385.000000,0.003,-0.034,1.006,0.15,0.12,-0.00,-23.17,29.48,-22.42,-0.10,-1.92,-81.89,0.755,-0.013,0.010,-0.655
8703395.000000,0.003,-0.034,1.010,-0.05,0.00,-0.00,-23.43,29.89,-22.75,-0.10,-1.92,-81.89,0.755,-0.013,0.010,-0.655
8703405.000000,0.001,-0.034,1.015,-0.01,0.12,-0.04,-23.35,29.27,-23.08,-0.10,-1.92,-81.89,0.755,-0.013,0.010,-0.655
8703415.000000,0.002,-0.034,1.006,-0.05,0.06,-0.08,-23.31,29.77,-22.88,-0.10,-1.92,-81.89,0.755,-0.013,0.010,-0.655
8703425.000000,0.001,-0.035,1.009,0.07,0.04,-0.02,-23.31,29.77,-22.88,-0.10,-1.92,-81.89,0.755,-0.013,0.010,-0.655
8703435.000000,0.002,-0.036,1.013,-0.07,0.16,0.04,-23.13,30.00,-22.42,-0.10,-1.92,-81.89,0.755,-0.013,0.010,-0.655
8703445.000000,0.002,-0.034,1.007,-0.01,0.14,-0.04,-22.89,29.85,-22.71,-0.10,-1.92,-81.89,0.755,-0.013,0.010,-0.655
8703455.000000,0.004,-0.034,1.007,-0.01,0.10,0.10,-23.17,29.71,-22.71,-0.10,-1.92,-81.89,0.755,-0.013,0.010,-0.655
8703465.000000,0.001,-0.032,1.009,0.03,0.14,-0.02,-23.43,29.58,-22.75,-0.10,-1.92,-81.89,0.755,-0.013,0.010,-0.655
8703475.000000,0.000,-0.031,1.002,-0.03,0.00,-0.00,-23.43,29.58,-22.75,-0.10,-1.92,-81.89,0.755,-0.013,0.010,-0.655
8703485.000000,0.002,-0.032,1.007,0.05,0.12,-0.00,-24.00,29.63,-22.96,-0.10,-1.92,-81.89,0.755,-0.013,0.010,-0.655
8703495.000000,0.001,-0.034,1.007,0.05,0.18,-0.02,-24.00,29.67,-22.88,-0.10,-1.92,-81.89,0.755,-0.013,0.010,-0.655
8703505.000000,0.001,-0.034,1.010,0.11,0.04,0.04,-24.04,29.54,-22.63,-0.10,-1.92,-81.89,0.755,-0.013,0.010,-0.655
8703515.000000,0.002,-0.032,1.007,-0.07,0.08,-0.12,-24.18,29.58,-23.04,-0.10,-1.92,-81.89,0.755,-0.013,0.010,-0.655
8703525.000000,-0.001,-0.035,1.007,0.01,0.00,-0.06,-24.18,29.58,-23.04,-0.11,-1.92,-81.89,0.755,-0.013,0.010,-0.655
8703535.000000,0.001,-0.032,1.007,-0.01,0.23,-0.04,-23.81,29.89,-22.71,-0.11,-1.92,-81.89,0.755,-0.013,0.010,-0.655
8703545.000000,0.002,-0.035,1.003,0.01,0.04,0.10,-23.25,29.77,-22.46,-0.11,-1.92,-81.89,0.755,-0.013,0.010,-0.655
8703555.000000,0.001,-0.032,1.009,0.11,0.08,-0.02,-23.63,30.13,-22.79,-0.11,-1.92,-81.89,0.755,-0.013,0.010,-0.655
8703565.000000,0.003,-0.036,1.009,0.01,0.08,-0.02,-23.58,29.93,-22.46,-0.11,-1.92,-81.89,0.755,-0.013,0.010,-0.655
8703575.000000,0.004,-0.032,1.006,0.05,0.06,0.06,-23.58,29.93,-22.46,-0.11,-1.92,-81.89,0.755,-0.013,0.010,-0.655
8703585.000000,0.003,-0.034,1.010,-0.03,0.06,-0.02,-22.63,30.00,-23.00,-0.11,-1.92,-81.89,0.755,-0.013,0.010,-0.655
8703595.000000,0.002,-0.035,1.005,-0.01,0.06,0.06,-22.85,30.04,-23.00,-0.11,-1.92,-81.89,0.755,-0.013,0.010,-0.655
8703605.000000,0.003,-0.034,1.010,0.01,0.14,-0.02,-22.48,30.17,-22.71,-0.11,-1.92,-81.89,0.755,-0.013,0.010,-0.655
8703615.000000,-0.002,-0.031,1.009,0.01,0.12,-0.04,-22.56,30.39,-23.04,-0.11,-1.92,-81.89,0.755,-0.013,0.010,-0.655
8703625.000000,0.003,-0.034,1.007,-0.01,0.08,-0.04,-22.56,30.39,-23.04,-0.11,-1.92,-81.89,0.755,-0.013,0.010,-0.655
8703635.000000,0.002,-0.032,1.007,0.05,0.04,0.02,-23.13,30.31,-22.79,-0.11,-1.92,-81.89,0.755,-0.013,0.010,-0.655
8703645.000000,0.000,-0.034,1.006,0.01,0.04,-0.00,-23.21,30.23,-22.83,-0.11,-1.92,-81.89,0.755,-0.013,0.010,-0.655
8703655.000000,0.000,-0.035,1.003,0.07,0.16,-0.02,-22.98,30.63,-22.71,-0.11,-1.92,-81.89,0.755,-0.013,0.010,-0.655
8703665.000000,-0.001,-0.035,1.010,0.01,0.08,-0.00,-22.89,30.17,-22.88,-0.11,-1.92,-81.89,0.755,-0.013,0.010,-0.655
8703675.000000,0.003,-0.032,1.005,0.09,0.02,0.08,-22.89,30.17,-22.88,-0.11,-1.92,-81.89,0.755,-0.013,0.010,-0.655
8703685.000000,0.002,-0.035,1.009,0.09,0.18,0.02,-23.73,29.54,-22.83,-0.11,-1.92,-81.89,0.755,-0.013,0.010,-0.655
8703695.000000,0.003,-0.034,1.010,-0.01,0.10,-0.06,-24.04,29.93,-23.00,-0.11,-1.92,-81.89,0.755,-0.013,0.010,-0.655
8703705.000000,0.002,-0.034,1.007,-0.01,0.14,-0.00,-23.81,29.89,-22.88,-0.11,-1.92,-81.89,0.755,-0.013,0.010,-0.655
8703715.000000,0.002,-0.032,1.007,0.07,0.08,-0.00,-23.85,29.81,-23.00,-0.11,-1.92,-81.89,0.755,-0.013,0.010,-0.655
8703725.000000,0.001,-0.034,1.010,-0.07,0.06,0.02,-23.85,29.81,-23.00,-0.11,-1.92,-81.89,0.755,-0.013,0.010,-0.655
8703735.000000,0.001,-0.035,1.009,0.07,0.14,-0.13,-23.96,28.89,-22.50,-0.11,-1.92,-81.89,0.755,-0.013,0.010,-0.655
8703745.000000,0.003,-0.035,1.005,0.05,0.06,-0.02,-23.81,28.98,-22.38,-0.11,-1.92,-81.89,0.755,-0.013,0.010,-0.655
8703755.000000,0.003,-0.034,1.005,0.09,0.00,-0.08,-23.81,28.98,-22.38,-0.11,-1.92,-81.89,0.755,-0.013,0.010,-0.655
8703765.000000,0.003,-0.035,1.007,0.07,-0.02,-0.04,-23.81,28.98,-22.38,-0.11,-1.92,-81.89,0.755,-0.013,0.010,-0.655
8703775.000000,0.003,-0.032,1.007,-0.03,0.12,-0.02,-23.81,28.98,-22.38,-0.11,-1.92,-81.89,0.755,-0.013,0.010,-0.655
8703785.000000,0.003,-0.035,1.006,0.05,0.06,-0.10,-23.58,29.93,-22.67,-0.11,-1.92,-81.89,0.755,-0.013,0.010,-0.655
8703795.000000,0.004,-0.035,1.010,0.09,0.14,0.06,-23.85,29.89,-22.54,-0.11,-1.92,-81.89,0.755,-0.013,0.010,-0.655
8703805.000000,-0.001,-0.034,1.011,0.05,0.12,-0.00,-23.67,30.00,-22.79,-0.11,-1.92,-81.89,0.755,-0.013,0.010,-0.655
8703815.000000,0.000,-0.034,1.003,0.03,0.21,-0.08,-23.73,29.81,-22.42,-0.11,-1.92,-81.89,0.755,-0.013,0.010,-0.655
8703825.000000,-0.001,-0.031,1.009,0.05,0.04,-0.00,-23.77,30.27,-22.79,-0.11,-1.92,-81.89,0.755,-0.013,0.010,-0.655
8703835.000000,-0.001,-0.032,1.013,0.03,0.04,-0.04,-23.73,29.48,-23.00,-0.11,-1.92,-81.89,0.755,-0.013,0.010,-0.655
8703845.000000,0.000,-0.034,1.003,-0.01,0.14,0.02,-23.31,29.48,-22.33,-0.11,-1.92,-81.89,0.755,-0.013,0.010,-0.655
8703855.000000,0.002,-0.034,1.007,0.01,0.10,-0.02,-23.58,29.77,-22.42,-0.10,-1.92,-81.89,0.755,-0.013,0.010,-0.655
8703865.000000,0.001,-0.035,1.009,0.05,0.23,-0.02,-23.21,29.89,-22.83,-0.10,-1.92,-81.89,0.755,-0.013,0.010,-0.655
8703875.000000,0.002,-0.032,1.007,0.05,-0.04,-0.04,-23.39,29.43,-22.50,-0.10,-1.92,-81.89,0.755,-0.013,0.010,-0.655
8703885.000000,0.003,-0.036,1.007,0.05,0.06,-0.02,-23.85,29.39,-22.92,-0.10,-1.92,-81.89,0.755,-0.013,0.010,-0.655
8703895.000000,0.004,-0.036,1.007,-0.07,-0.04,0.02,-23.85,29.48,-22.58,-0.10,-1.92,-81.89,0.755,-0.013,0.010,-0.655
8703905.000000,0.002,-0.034,1.005,-0.05,0.23,-0.02,-23.89,29.48,-22.63,-0.10,-1.92,-81.89,0.755,-0.013,0.010,-0.655
8703915.000000,-0.001,-0.032,1.010,0.01,0.06,-0.06,-23.96,29.35,-22.54,-0.10,-1.92,-81.89,0.755,-0.013,0.010,-0.655
8703925.000000,0.002,-0.034,1.006,-0.05,0.16,0.04,-24.18,29.08,-22.08,-0.10,-1.92,-81.89,0.755,-0.013,0.010,-0.655
8703935.000000,0.002,-0.034,1.007,0.01,0.14,-0.12,-24.42,29.54,-22.67,-0.10,-1.92,-81.89,0.755,-0.013,0.010,-0.655
8703945.000000,0.001,-0.032,1.013,-0.01,0.02,-0.06,-24.46,30.04,-22.63,-0.10,-1.92,-81.89,0.755,-0.013,0.010,-0.655
8703955.000000,0.002,-0.034,1.010,0.03,0.06,0.02,-24.27,29.77,-23.04,-0.10,-1.92,-81.89,0.755,-0.013,0.010,-0.655
8703965.000000,0.002,-0.032,1.011,-0.01,0.08,-0.00,-24.27,29.54,-22.71,-0.10,-1.92,-81.89,0.755,-0.013,0.010,-0.655
8703975.000000,0.002,-0.035,1.011,0.05,0.04,-0.02,-24.31,29.27,-23.08,-0.10,-1.92,-81.89,0.755,-0.013,0.010,-0.655
8703985.000000,0.003,-0.034,1.003,0.05,0.20,-0.00,-24.04,30.23,-22.58,-0.10,-1.92,-81.89,0.755,-0.013,0.010,-0.655
8703995.000000,0.002,-0.034,1.007,0.07,0.10,-0.02,-24.23,30.46,-22.63,-0.10,-1.92,-81.89,0.755,-0.013,0.010,-0.655
8704005.000000,0.004,-0.034,1.006,-0.05,0.12,-0.02,-24.04,30.39,-22.75,-0.11,-1.92,-81.89,0.755,-0.013,0.010,-0.655
8704015.000000,0.001,-0.031,1.009,0.07,0.04,-0.04,-24.31,30.27,-22.58,-0.11,-1.92,-81.89,0.755,-0.013,0.010,-0.655
8704025.000000,0.003,-0.032,1.006,0.05,-0.04,0.06,-23.77,30.31,-22.71,-0.11,-1.92,-81.89,0.755,-0.013,0.010,-0.655
8704035.000000,0.002,-0.031,1.009,0.03,0.04,-0.00,-24.64,29.71,-22.83,-0.11,-1.92,-81.89,0.755,-0.013,0.010,-0.655
8704045.000000,0.002,-0.034,1.009,0.03,0.12,0.06,-24.00,29.81,-22.46,-0.11,-1.92,-81.89,0.755,-0.013,0.010,-0.655
8704055.000000,0.003,-0.032,1.007,0.03,0.16,-0.00,-24.04,30.00,-22.50,-0.11,-1.92,-81.89,0.755,-0.013,0.010,-0.655
8704065.000000,0.002,-0.032,1.007,0.11,0.14,-0.04,-24.31,29.43,-23.00,-0.11,-1.92,-81.89,0.755,-0.013,0.010,-0.655
8704075.000000,-0.001,-0.032,1.005,-0.07,0.14,0.04,-24.35,29.85,-22.75,-0.11,-1.92,-81.89,0.755,-0.013,0.010,-0.655
8704085.000000,0.001,-0.032,1.009,-0.01,0.14,-0.04,-24.08,29.43,-22.88,-0.11,-1.92,-81.89,0.755,-0.013,0.010,-0.655
8704095.000000,0.003,-0.032,1.003,-0.05,0.08,0.04,-24.35,29.54,-22.79,-0.11,-1.92,-81.89,0.755,-0.013,0.010,-0.655
8704105.000000,0.002,-0.032,1.006,0.09,0.14,0.02,-24.00,29.93,-22.83,-0.11,-1.92,-81.89,0.755,-0.013,0.010,-0.655
8704115.000000,-0.001,-0.034,1.006,0.01,0.10,-0.00,-24.08,30.00,-22.75,-0.11,-1.92,-81.89,0.755,-0.013,0.010,-0.655
8704125.000000,0.004,-0.035,1.007,0.05,0.08,-0.10,-23.89,29.81,-22.67,-0.11,-1.92,-81.89,0.755,-0.013,0.010,-0.655
8704135.000000,0.003,-0.031,1.010,0.07,0.14,-0.04,-23.96,29.71,-22.75,-0.11,-1.92,-81.89,0.755,-0.013,0.010,-0.655
8704145.000000,0.002,-0.034,1.005,-0.03,0.18,-0.02,-23.96,30.04,-22.54,-0.11,-1.92,-81.89,0.755,-0.013,0.010,-0.655
8704155.000000,0.003,-0.032,1.006,0.11,0.27,-0.00,-23.85,29.89,-22.58,-0.11,-1.92,-81.89,0.755,-0.013,0.010,-0.655
8704165.000000,0.001,-0.035,1.010,0.03,0.10,-0.02,-23.73,30.13,-22.58,-0.11,-1.92,-81.89,0.755,-0.013,0.010,-0.655
8704175.000000,0.001,-0.032,1.009,-0.03,0.02,-0.02,-24.04,29.43,-22.75,-0.11,-1.92,-81.89,0.755,-0.013,0.010,-0.655
8704185.000000,0.001,-0.032,1.007,-0.05,-0.04,0.02,-24.54,30.08,-23.00,-0.11,-1.92,-81.89,0.755,-0.013,0.010,-0.655
8704195.000000,0.003,-0.035,1.011,0.05,0.14,-0.06,-24.77,30.08,-22.75,-0.11,-1.92,-81.89,0.755,-0.013,0.010,-0.655
8704205.000000,-0.001,-0.034,1.010,-0.03,0.06,-0.00,-23.85,29.85,-22.54,-0.11,-1.92,-81.89,0.755,-0.013,0.010,-0.655
8704215.000000,0.000,-0.035,1.005,0.05,0.06,0.10,-24.18,29.85,-22.42,-0.11,-1.92,-81.89,0.755,-0.013,0.010,-0.655
8704225.000000,0.002,-0.035,1.003,-0.05,0.14,-0.00,-24.50,30.08,-22.92,-0.11,-1.92,-81.89,0.755,-0.013,0.010,-0.655
8704235.000000,0.002,-0.036,1.006,0.01,0.10,-0.06,-23.08,29.21,-22.79,-0.11,-1.92,-81.89,0.755,-0.013,0.010,-0.655
8704245.000000,0.001,-0.035,1.010,0.05,0.04,-0.02,-22.56,28.98,-22.50,-0.11,-1.92,-81.89,0.755,-0.013,0.010,-0.655
8704255.000000,-0.002,-0.032,1.011,-0.01,0.18,-0.00,-22.75,29.13,-22.88,-0.11,-1.92,-81.89,0.755,-0.013,0.010,-0.655
8704265.000000,0.002,-0.035,1.006,0.05,0.14,-0.04,-22.85,29.08,-22.58,-0.10,-1.92,-81.89,0.755,-0.013,0.010,-0.655
8704275.000000,0.002,-0.034,1.007,-0.03,0.23,0.02,-22.93,28.98,-22.79,-0.10,-1.92,-81.89,0.755,-0.013,0.010,-0.655
8704285.000000,0.002,-0.035,1.007,-0.03,0.00,0.02,-22.10,29.43,-22.88,-0.10,-1.92,-81.89,0.755,-0.013,0.010,-0.655
8704295.000000,-0.001,-0.034,1.013,0.03,0.04,0.02,-22.06,29.71,-22.54,-0.11,-1.92,-81.89,0.755,-0.013,0.010,-0.655
8704305.000000,0.002,-0.034,1.010,0.03,0.08,0.04,-22.06,29.93,-22.92,-0.11,-1.92,-81.89,0.755,-0.013,0.010,-0.655
8704315.000000,0.002,-0.035,1.013,0.07,0.04,-0.04,-22.06,29.89,-23.00,-0.10,-1.92,-81.89,0.755,-0.013,0.010,-0.655
8704325.000000,0.002,-0.035,1.009,0.05,0.04,0.02,-21.56,29.71,-22.54,-0.10,-1.92,-81.89,0.755,-0.013,0.010,-0.655
8704335.000000,0.001,-0.032,1.009,0.03,0.12,-0.10,-22.39,29.77,-22.88,-0.10,-1.92,-81.89,0.755,-0.013,0.010,-0.655
8704345.000000,0.003,-0.032,1.003,-0.01,0.06,0.06,-21.88,29.85,-22.75,-0.11,-1.92,-81.89,0.755,-0.013,0.010,-0.655
8704356.000000,0.003,-0.034,1.010,-0.01,0.10,-0.08,-22.33,29.71,-22.63,-0.11,-1.92,-81.89,0.755,-0.013,0.010,-0.655
8704366.000000,0.001,-0.034,1.010,0.03,0.14,0.04,-21.93,29.71,-22.67,-0.11,-1.92,-81.89,0.755,-0.013,0.010,-0.655
8704376.000000,0.003,-0.032,1.009,0.01,-0.04,-0.06,-22.10,29.71,-22.92,-0.11,-1.92,-81.89,0.755,-0.013,0.010,-0.655
8704386.000000,-0.002,-0.036,1.006,-0.03,0.10,-0.08,-22.25,29.81,-22.67,-0.11,-1.92,-81.89,0.755,-0.013,0.010,-0.655
8704396.000000,-0.002,-0.032,1.010,0.01,0.18,-0.00,-22.21,29.89,-22.71,-0.11,-1.92,-81.89,0.755,-0.013,0.010,-0.655
8704406.000000,0.004,-0.032,1.007,0.03,0.16,-0.00,-22.25,29.67,-23.00,-0.10,-1.92,-81.89,0.755,-0.013,0.010,-0.655
8704416.000000,0.002,-0.032,1.006,0.11,0.08,0.02,-21.75,29.54,-22.96,-0.10,-1.92,-81.89,0.755,-0.013,0.010,-0.655
8704426.000000,0.001,-0.034,1.010,-0.03,0.06,0.04,-22.10,29.63,-22.58,-0.10,-1.92,-81.89,0.755,-0.013,0.010,-0.655
8704436.000000,0.003,-0.035,1.006,0.03,0.06,0.02,-23.13,29.67,-22.67,-0.10,-1.92,-81.89,0.755,-0.013,0.010,-0.655
8704446.000000,0.002,-0.035,1.006,0.05,0.06,-0.06,-22.56,30.39,-22.96,-0.10,-1.92,-81.89,0.755,-0.013,0.010,-0.655
8704456.000000,0.003,-0.030,1.007,0.07,0.14,-0.02,-23.02,29.67,-23.08,-0.10,-1.92,-81.89,0.755,-0.013,0.010,-0.655
8704466.000000,0.002,-0.034,1.005,0.01,0.04,-0.04,-22.67,29.63,-23.13,-0.10,-1.92,-81.89,0.755,-0.013,0.010,-0.655
8704476.000000,0.002,-0.035,1.006,0.01,0.16,-0.10,-22.67,29.77,-22.83,-0.10,-1.92,-81.89,0.755,-0.013,0.010,-0.655
8704486.000000,0.003,-0.034,1.010,0.07,0.10,0.10,-23.31,29.77,-22.67,-0.10,-1.92,-81.89,0.755,-0.013,0.010,-0.655
8704496.000000,0.003,-0.035,1.013,0.05,0.23,-0.02,-23.13,30.04,-22.54,-0.10,-1.92,-81.89,0.755,-0.013,0.010,-0.655
8704506.000000,0.003,-0.034,1.006,0.03,0.12,-0.06,-23.31,29.71,-22.75,-0.10,-1.92,-81.89,0.755,-0.013,0.010,-0.655
8704516.000000,0.000,-0.035,1.007,0.03,0.02,-0.00,-23.25,29.77,-22.88,-0.10,-1.92,-81.89,0.755,-0.013,0.010,-0.655
8704526.000000,0.004,-0.034,1.009,0.05,0.18,-0.04,-23.25,29.93,-22.63,-0.10,-1.92,-81.89,0.755,-0.013,0.010,-0.655
8704536.000000,0.003,-0.036,1.009,0.03,0.00,0.04,-23.50,29.71,-22.83,-0.10,-1.92,-81.89,0.755,-0.013,0.010,-0.655
8704546.000000,0.003,-0.032,1.007,-0.01,0.02,-0.10,-23.35,29.63,-22.96,-0.11,-1.92,-81.89,0.755,-0.013,0.010,-0.655
8704556.000000,0.000,-0.036,1.009,0.03,0.21,-0.02,-23.73,29.85,-22.67,-0.11,-1.92,-81.89,0.755,-0.013,0.010,-0.655
8704566.000000,-0.003,-0.034,1.010,0.09,0.23,0.04,-23.17,29.54,-22.75,-0.11,-1.92,-81.89,0.755,-0.013,0.010,-0.655
8704576.000000,0.002,-0.035,1.007,0.07,0.14,0.02,-23.89,29.58,-22.50,-0.11,-1.92,-81.89,0.755,-0.013,0.010,-0.655
8704586.000000,0.004,-0.034,1.009,0.11,0.04,0.02,-23.50,29.85,-22.88,-0.10,-1.92,-81.89,0.755,-0.013,0.010,-0.655
8704596.000000,0.003,-0.034,1.007,0.03,-0.08,-0.00,-23.21,29.63,-22.83,-0.10,-1.92,-81.89,0.755,-0.013,0.010,-0.655
8704606.000000,0.000,-0.034,1.006,-0.03,0.02,-0.04,-22.98,29.58,-22.92,-0.10,-1.92,-81.89,0.755,-0.013,0.010,-0.655
8704616.000000,0.001,-0.035,1.011,0.03,0.21,-0.02,-23.13,30.00,-22.92,-0.10,-1.92,-81.89,0.755,-0.013,0.010,-0.655
8704626.000000,0.002,-0.032,1.010,0.07,0.12,0.02,-22.98,29.63,-22.92,-0.10,-1.92,-81.89,0.755,-0.013,0.010,-0.655
8704636.000000,0.003,-0.034,1.006,0.01,0.08,-0.02,-23.02,29.89,-22.88,-0.10,-1.92,-81.89,0.755,-0.013,0.010,-0.655
8704646.000000,0.003,-0.031,1.007,0.01,0.06,-0.00,-22.43,29.77,-23.17,-0.10,-1.92,-81.89,0.755,-0.013,0.010,-0.655
8704656.000000,0.003,-0.031,1.009,0.01,0.14,0.04,-22.85,29.63,-22.67,-0.10,-1.92,-81.89,0.755,-0.013,0.010,-0.655
8704666.000000,0.002,-0.034,1.009,0.01,0.06,-0.04,-22.63,29.48,-22.96,-0.10,-1.92,-81.89,0.755,-0.013,0.010,-0.655
8704676.000000,0.001,-0.034,1.015,0.09,0.10,-0.04,-22.75,29.77,-22.42,-0.10,-1.92,-81.89,0.755,-0.013,0.010,-0.655
