TimeStamp,AccX,AccY,AccZ,GyrX,GyrY,GyrZ,MagX,MagY,MagZ,Roll,Pitch,Yaw,Qw,Qx,Qy,Qz
55513.000000,0.988,-0.016,-0.172,0.05,0.12,-0.02,-42.13,0.50,-25.00,-99.90,-0.81,97.12,0.422,0.571,-0.510,0.486
55523.000000,0.990,-0.013,-0.172,0.05,0.04,-0.00,-42.31,0.50,-24.92,-99.90,-0.81,97.12,0.422,0.571,-0.510,0.486
55533.000000,0.989,-0.016,-0.171,0.03,0.06,-0.02,-42.39,0.31,-25.08,-99.90,-0.81,97.13,0.422,0.571,-0.510,0.486
55543.000000,0.989,-0.013,-0.171,-0.03,0.10,0.04,-42.31,0.13,-25.13,-99.90,-0.81,97.13,0.422,0.571,-0.510,0.486
55553.000000,0.988,-0.012,-0.171,0.01,0.02,-0.02,-42.73,0.73,-25.46,-99.90,-0.81,97.12,0.422,0.571,-0.510,0.486
55563.000000,0.988,-0.015,-0.172,-0.01,-0.08,-0.02,-42.77,0.63,-25.13,-99.90,-0.81,97.12,0.422,0.571,-0.510,0.486
55573.000000,0.988,-0.013,-0.175,0.07,-0.04,-0.00,-42.96,0.17,-25.29,-99.90,-0.81,97.12,0.422,0.571,-0.510,0.486
55583.000000,0.986,-0.015,-0.174,0.07,-0.02,0.02,-43.04,0.39,-25.50,-99.90,-0.81,97.12,0.422,0.571,-0.510,0.486
55593.000000,0.989,-0.016,-0.171,0.05,0.08,-0.00,-42.85,0.31,-25.21,-99.90,-0.81,97.13,0.422,0.571,-0.510,0.486
55603.000000,0.988,-0.013,-0.175,0.07,0.02,-0.00,-42.21,0.50,-25.29,-99.90,-0.81,97.13,0.422,0.571,-0.510,0.486
55613.000000,0.989,-0.015,-0.172,0.03,-0.04,0.02,-42.58,0.27,-25.33,-99.90,-0.81,97.13,0.422,0.571,-0.510,0.486
55623.000000,0.990,-0.011,-0.171,0.07,0.23,-0.00,-42.77,0.27,-25.21,-99.90,-0.81,97.13,0.422,0.571,-0.510,0.486
55633.000000,0.993,-0.016,-0.175,0.01,0.08,-0.00,-42.73,0.77,-25.21,-99.90,-0.81,97.13,0.422,0.571,-0.510,0.486
55643.000000,0.992,-0.012,-0.171,0.03,0.04,-0.17,-42.31,0.39,-25.42,-99.90,-0.81,97.13,0.422,0.571,-0.510,0.486
55653.000000,0.988,-0.012,-0.174,-0.01,0.00,-0.00,-42.54,0.58,-25.17,-99.90,-0.81,97.13,0.422,0.571,-0.510,0.486
55663.000000,0.990,-0.013,-0.174,0.13,0.02,-0.02,-43.08,0.58,-25.25,-99.90,-0.81,97.13,0.422,0.571,-0.510,0.486
55673.000000,0.989,-0.015,-0.171,0.09,0.06,0.02,-42.81,0.39,-24.67,-99.90,-0.81,97.13,0.422,0.571,-0.510,0.486
55683.000000,0.990,-0.012,-0.172,0.07,0.02,-0.02,-42.35,1.04,-25.25,-99.90,-0.81,97.13,0.422,0.571,-0.510,0.486
55693.000000,0.988,-0.013,-0.171,0.13,0.06,-0.02,-42.54,0.89,-25.13,-99.90,-0.81,97.13,0.422,0.571,-0.510,0.486
55703.000000,0.988,-0.010,-0.174,0.07,0.00,-0.00,-42.73,1.00,-25.17,-99.90,-0.81,97.13,0.422,0.571,-0.510,0.486
55713.000000,0.988,-0.016,-0.168,0.07,0.00,-0.10,-42.35,0.89,-25.00,-99.91,-0.81,97.13,0.422,0.571,-0.510,0.486
55723.000000,0.988,-0.013,-0.174,0.07,0.12,0.08,-42.39,0.85,-25.17,-99.91,-0.81,97.13,0.422,0.571,-0.510,0.486
55733.000000,0.990,-0.013,-0.171,0.05,0.06,-0.02,-42.67,1.13,-25.13,-99.90,-0.81,97.13,0.422,0.571,-0.510,0.486
55743.000000,0.986,-0.015,-0.175,0.03,0.00,-0.06,-42.54,0.81,-25.33,-99.90,-0.81,97.13,0.422,0.571,-0.510,0.486
55753.000000,0.988,-0.012,-0.174,0.01,0.00,-0.02,-41.89,0.81,-25.25,-99.91,-0.81,97.13,0.422,0.571,-0.510,0.486
55763.000000,0.988,-0.013,-0.172,0.13,0.12,-0.02,-42.04,0.81,-25.46,-99.91,-0.81,97.13,0.422,0.571,-0.510,0.486
55773.000000,0.990,-0.015,-0.172,0.11,0.12,-0.02,-42.17,1.00,-25.83,-99.91,-0.81,97.13,0.422,0.571,-0.510,0.486
55783.000000,0.988,-0.013,-0.172,0.01,0.02,-0.00,-42.17,1.00,-25.33,-99.90,-0.81,97.13,0.422,0.571,-0.510,0.486
55793.000000,0.988,-0.013,-0.174,-0.05,0.08,0.08,-42.08,1.00,-25.54,-99.90,-0.81,97.13,0.422,0.571,-0.510,0.486
55803.000000,0.989,-0.017,-0.175,0.07,0.04,-0.04,-40.98,0.54,-25.29,-99.90,-0.81,97.13,0.422,0.571,-0.510,0.486
55813.000000,0.988,-0.015,-0.172,0.07,0.14,-0.00,-41.13,0.73,-25.42,-99.90,-0.81,97.13,0.422,0.571,-0.510,0.486
55823.000000,0.988,-0.011,-0.177,0.01,0.16,-0.08,-40.60,0.50,-25.42,-99.90,-0.81,97.13,0.422,0.571,-0.510,0.486
55833.000000,0.989,-0.016,-0.174,-0.01,0.10,-0.00,-40.93,1.00,-25.42,-99.90,-0.81,97.13,0.422,0.571,-0.510,0.486
55843.000000,0.990,-0.012,-0.174,0.03,0.02,-0.02,-40.75,0.77,-25.63,-99.90,-0.81,97.13,0.422,0.571,-0.510,0.486
55853.000000,0.989,-0.015,-0.174,-0.03,-0.02,-0.04,-41.43,-0.08,-25.38,-99.90,-0.81,97.13,0.422,0.571,-0.510,0.486
55863.000000,0.990,-0.015,-0.176,-0.01,0.10,-0.04,-41.67,-0.39,-25.13,-99.90,-0.81,97.13,0.422,0.571,-0.510,0.486
55873.000000,0.989,-0.012,-0.171,-0.03,0.08,-0.02,-41.67,-0.21,-25.13,-99.90,-0.81,97.13,0.422,0.571,-0.510,0.486
55883.000000,0.989,-0.013,-0.176,0.01,0.08,-0.02,-41.67,-0.35,-24.96,-99.90,-0.81,97.13,0.422,0.571,-0.510,0.486
55893.000000,0.992,-0.016,-0.174,0.09,0.10,-0.06,-41.67,-0.35,-25.21,-99.90,-0.81,97.13,0.422,0.571,-0.510,0.486
55903.000000,0.990,-0.012,-0.172,0.03,0.04,0.04,-41.13,0.27,-25.54,-99.90,-0.81,97.13,0.422,0.571,-0.510,0.486
55913.000000,0.989,-0.015,-0.172,0.07,0.08,-0.04,-41.75,0.63,-25.29,-99.90,-0.81,97.13,0.422,0.571,-0.510,0.486
55923.000000,0.988,-0.013,-0.172,0.07,0.08,-0.10,-41.48,0.73,-25.25,-99.90,-0.81,97.13,0.422,0.571,-0.510,0.486
55933.000000,0.989,-0.013,-0.171,0.03,0.06,0.08,-41.25,0.77,-25.50,-99.90,-0.81,97.13,0.422,0.571,-0.510,0.486
55943.000000,0.988,-0.013,-0.175,0.09,0.08,-0.06,-41.52,0.58,-25.25,-99.90,-0.81,97.13,0.422,0.571,-0.510,0.486
55953.000000,0.989,-0.013,-0.175,0.01,0.12,0.06,-41.35,0.63,-25.29,-99.90,-0.81,97.13,0.422,0.571,-0.510,0.486
55963.000000,0.990,-0.013,-0.172,0.01,-0.04,0.02,-41.67,0.73,-25.13,-99.90,-0.81,97.13,0.422,0.571,-0.510,0.486
55973.000000,0.988,-0.015,-0.174,-0.07,0.08,-0.02,-41.43,0.54,-25.13,-99.90,-0.81,97.13,0.422,0.571,-0.510,0.486
55983.000000,0.989,-0.011,-0.172,0.05,0.08,-0.04,-41.35,0.39,-25.46,-99.90,-0.81,97.13,0.422,0.571,-0.510,0.486
55993.000000,0.986,-0.016,-0.174,-0.01,0.02,0.02,-41.48,0.27,-25.63,-99.90,-0.81,97.13,0.422,0.571,-0.510,0.486
56003.000000,0.992,-0.012,-0.171,0.11,0.14,-0.04,-41.98,1.27,-25.42,-99.90,-0.81,97.13,0.422,0.571,-0.510,0.486
56013.000000,0.990,-0.013,-0.176,-0.03,0.06,0.06,-41.93,0.50,-25.42,-99.90,-0.81,97.13,0.422,0.571,-0.510,0.486
56023.000000,0.989,-0.012,-0.175,0.11,0.12,-0.02,-41.93,0.73,-25.46,-99.90,-0.81,97.13,0.422,0.571,-0.510,0.486
56033.000000,0.989,-0.015,-0.172,-0.05,-0.06,-0.04,-42.13,1.08,-25.25,-99.90,-0.81,97.13,0.422,0.571,-0.510,0.486
56043.000000,0.985,-0.012,-0.170,-0.01,0.04,-0.04,-41.89,0.85,-25.17,-99.90,-0.81,97.13,0.422,0.571,-0.510,0.486
56053.000000,0.990,-0.012,-0.174,0.15,0.14,-0.04,-41.89,0.39,-25.33,-99.90,-0.81,97.13,0.422,0.571,-0.510,0.486
56063.000000,0.989,-0.015,-0.174,0.05,0.02,-0.02,-41.89,0.43,-25.29,-99.90,-0.81,97.13,0.422,0.571,-0.510,0.486
56073.000000,0.986,-0.013,-0.174,-0.05,0.00,-0.00,-41.98,0.96,-25.13,-99.90,-0.81,97.13,0.422,0.571,-0.510,0.486
56083.000000,0.990,-0.017,-0.174,0.09,0.14,-0.08,-41.67,0.54,-24.92,-99.90,-0.81,97.13,0.422,0.571,-0.510,0.486
56093.000000,0.986,-0.015,-0.174,0.05,0.02,-0.02,-41.89,0.67,-25.29,-99.90,-0.81,97.13,0.422,0.571,-0.510,0.486
56103.000000,0.990,-0.017,-0.171,0.01,0.04,-0.00,-42.35,-0.17,-25.46,-99.90,-0.81,97.13,0.422,0.571,-0.510,0.486
56113.000000,0.988,-0.013,-0.171,0.01,0.10,-0.08,-42.17,0.31,-24.92,-99.90,-0.81,97.13,0.422,0.571,-0.510,0.486
56123.000000,0.986,-0.015,-0.172,0.03,0.16,0.04,-42.39,-0.21,-25.00,-99.90,-0.81,97.13,0.422,0.571,-0.510,0.486
56133.000000,0.990,-0.013,-0.175,0.01,0.18,-0.08,-42.27,0.00,-24.96,-99.90,-0.81,97.13,0.422,0.571,-0.510,0.486
56143.000000,0.988,-0.016,-0.172,0.01,0.00,-0.08,-42.31,0.00,-24.96,-99.90,-0.81,97.13,0.422,0.571,-0.510,0.486
56153.000000,0.990,-0.015,-0.168,0.03,0.04,-0.06,-42.08,1.04,-25.29,-99.90,-0.81,97.13,0.422,0.571,-0.510,0.486
56163.000000,0.990,-0.013,-0.172,0.05,0.06,-0.08,-42.31,1.27,-25.21,-99.90,-0.81,97.13,0.422,0.571,-0.510,0.486
56173.000000,0.992,-0.016,-0.172,-0.01,0.10,-0.00,-42.04,1.35,-25.38,-99.90,-0.81,97.13,0.422,0.571,-0.510,0.486
56183.000000,0.989,-0.013,-0.170,0.11,-0.10,-0.00,-42.50,1.35,-25.63,-99.90,-0.81,97.13,0.422,0.571,-0.510,0.486
56193.000000,0.990,-0.013,-0.171,0.07,0.00,-0.02,-42.54,0.96,-25.13,-99.90,-0.81,97.13,0.422,0.571,-0.510,0.486
56203.000000,0.993,-0.011,-0.172,0.05,0.12,-0.15,-41.81,1.13,-24.79,-99.90,-0.81,97.13,0.422,0.571,-0.510,0.486
56213.000000,0.989,-0.015,-0.175,0.03,0.16,0.06,-41.98,1.08,-25.04,-99.90,-0.81,97.13,0.422,0.571,-0.510,0.486
56223.000000,0.988,-0.013,-0.174,0.07,-0.08,-0.06,-41.75,1.18,-25.33,-99.90,-0.81,97.13,0.422,0.571,-0.510,0.486
56233.000000,0.989,-0.013,-0.174,0.13,0.04,0.02,-41.93,1.00,-25.58,-99.90,-0.81,97.13,0.422,0.571,-0.510,0.486
56243.000000,0.988,-0.012,-0.171,-0.05,-0.02,-0.06,-41.75,1.08,-25.17,-99.90,-0.81,97.13,0.422,0.571,-0.510,0.486
56253.000000,0.988,-0.015,-0.172,0.01,0.04,-0.02,-42.39,0.67,-25.54,-99.90,-0.81,97.13,0.422,0.571,-0.510,0.486
56263.000000,0.986,-0.013,-0.172,0.05,0.08,-0.02,-42.58,0.58,-25.29,-99.90,-0.81,97.13,0.422,0.571,-0.510,0.486
56273.000000,0.986,-0.015,-0.171,-0.01,0.16,0.08,-42.21,0.63,-25.29,-99.90,-0.81,97.13,0.422,0.571,-0.510,0.486
56283.000000,0.988,-0.015,-0.172,0.03,0.16,-0.02,-42.35,0.63,-24.83,-99.90,-0.81,97.13,0.422,0.571,-0.510,0.486
56293.000000,0.989,-0.012,-0.175,0.05,-0.02,-0.00,-42.43,0.73,-25.13,-99.90,-0.81,97.13,0.422,0.571,-0.510,0.486
56303.000000,0.986,-0.015,-0.175,0.03,0.02,-0.06,-42.81,0.04,-25.58,-99.90,-0.81,97.13,0.422,0.571,-0.510,0.486
56313.000000,0.988,-0.013,-0.170,-0.03,0.04,-0.00,-42.39,0.08,-24.75,-99.90,-0.81,97.13,0.422,0.571,-0.510,0.486
56323.000000,0.986,-0.016,-0.171,0.01,0.08,0.02,-42.58,0.27,-25.04,-99.90,-0.81,97.13,0.422,0.571,-0.510,0.486
56333.000000,0.992,-0.013,-0.174,0.01,-0.06,-0.02,-42.58,0.39,-25.04,-99.90,-0.81,97.13,0.422,0.571,-0.510,0.486
56343.000000,0.993,-0.012,-0.168,0.09,-0.02,-0.02,-42.43,0.08,-25.13,-99.90,-0.81,97.13,0.422,0.571,-0.510,0.486
56353.000000,0.989,-0.016,-0.175,0.03,0.10,-0.02,-42.73,0.54,-25.17,-99.90,-0.81,97.13,0.422,0.571,-0.510,0.486
56363.000000,0.990,-0.015,-0.174,0.03,0.00,0.02,-43.00,0.63,-25.29,-99.90,-0.81,97.13,0.422,0.571,-0.510,0.486
56373.000000,0.985,-0.015,-0.172,0.09,0.16,-0.06,-42.81,0.96,-25.42,-99.90,-0.81,97.13,0.422,0.571,-0.510,0.486
56383.000000,0.990,-0.013,-0.172,-0.01,0.06,0.06,-43.00,0.43,-25.25,-99.90,-0.81,97.13,0.422,0.571,-0.510,0.486
56393.000000,0.989,-0.012,-0.175,0.03,0.08,-0.00,-42.77,0.35,-25.46,-99.90,-0.81,97.13,0.422,0.571,-0.510,0.486
56403.000000,0.989,-0.015,-0.170,0.01,0.12,-0.02,-41.67,1.31,-25.25,-99.90,-0.81,97.13,0.422,0.571,-0.510,0.486
56413.000000,0.989,-0.013,-0.171,-0.01,-0.02,-0.10,-41.63,1.46,-25.54,-99.90,-0.81,97.13,0.422,0.571,-0.510,0.486
56423.000000,0.988,-0.013,-0.174,0.09,0.06,-0.06,-41.71,1.58,-25.38,-99.90,-0.81,97.13,0.422,0.571,-0.510,0.486
56433.000000,0.989,-0.015,-0.174,0.13,0.06,0.04,-41.29,1.64,-25.38,-99.90,-0.81,97.13,0.422,0.571,-0.510,0.486
56443.000000,0.990,-0.016,-0.170,-0.01,0.02,-0.06,-41.58,1.64,-25.38,-99.90,-0.81,97.13,0.422,0.571,-0.510,0.486
56453.000000,0.986,-0.013,-0.174,-0.03,0.12,-0.10,-41.58,1.64,-25.38,-99.90,-0.81,97.13,0.422,0.571,-0.510,0.486
56463.000000,0.986,-0.011,-0.174,0.05,0.16,0.06,-42.43,0.85,-25.21,-99.90,-0.81,97.13,0.422,0.571,-0.510,0.486
56473.000000,0.992,-0.015,-0.174,0.07,0.20,-0.04,-42.13,0.77,-25.50,-99.90,-0.81,97.13,0.422,0.571,-0.510,0.486
56483.000000,0.989,-0.016,-0.171,-0.03,0.14,-0.12,-42.31,1.00,-24.96,-99.90,-0.81,97.13,0.422,0.571,-0.510,0.486
56493.000000,0.988,-0.013,-0.172,0.13,0.04,-0.02,-41.75,1.08,-25.08,-99.90,-0.81,97.13,0.422,0.571,-0.510,0.486
56503.000000,0.989,-0.015,-0.170,-0.09,0.04,-0.04,-41.75,1.08,-25.08,-99.90,-0.81,97.13,0.422,0.571,-0.510,0.486
56513.000000,0.989,-0.013,-0.171,-0.01,0.10,-0.02,-42.17,0.54,-25.08,-99.90,-0.81,97.13,0.422,0.571,-0.510,0.486
56523.000000,0.990,-0.015,-0.172,-0.05,0.04,0.06,-41.63,0.73,-25.46,-99.90,-0.81,97.13,0.422,0.571,-0.510,0.486
56533.000000,0.988,-0.016,-0.176,0.01,0.00,0.02,-41.75,0.81,-25.13,-99.90,-0.81,97.13,0.422,0.571,-0.510,0.486
56543.000000,0.990,-0.013,-0.172,0.01,0.14,-0.04,-41.93,0.54,-25.38,-99.90,-0.81,97.13,0.422,0.571,-0.510,0.486
56553.000000,0.989,-0.015,-0.172,0.11,-0.08,0.02,-41.93,0.54,-25.38,-99.90,-0.81,97.13,0.422,0.571,-0.510,0.486
56563.000000,0.988,-0.015,-0.171,0.03,0.02,-0.00,-42.17,0.63,-25.33,-99.90,-0.81,97.13,0.422,0.571,-0.510,0.486
56573.000000,0.990,-0.013,-0.172,0.01,0.16,-0.04,-41.81,1.18,-25.46,-99.90,-0.81,97.13,0.422,0.571,-0.510,0.486
56583.000000,0.989,-0.016,-0.174,0.09,0.06,-0.08,-41.89,0.39,-25.71,-99.90,-0.81,97.13,0.422,0.571,-0.510,0.486
56593.000000,0.988,-0.013,-0.171,-0.07,0.16,0.02,-42.04,0.63,-25.17,-99.90,-0.81,97.13,0.422,0.571,-0.510,0.486
56603.000000,0.988,-0.012,-0.174,0.07,0.04,-0.04,-42.04,0.63,-25.17,-99.90,-0.81,97.13,0.422,0.571,-0.510,0.486
56613.000000,0.988,-0.013,-0.171,-0.01,0.12,-0.00,-41.21,-0.31,-25.17,-99.90,-0.81,97.13,0.422,0.571,-0.510,0.486
56623.000000,0.989,-0.015,-0.170,0.03,-0.06,-0.00,-41.29,-0.04,-25.33,-99.90,-0.81,97.13,0.422,0.571,-0.510,0.486
56633.000000,0.989,-0.015,-0.175,-0.09,0.12,-0.06,-41.17,-0.31,-25.17,-99.90,-0.81,97.13,0.422,0.571,-0.510,0.486
56643.000000,0.988,-0.016,-0.175,0.07,0.12,-0.10,-41.35,-0.17,-25.13,-99.90,-0.81,97.13,0.422,0.571,-0.510,0.486
56653.000000,0.989,-0.015,-0.170,0.13,0.18,-0.00,-41.35,-0.17,-25.13,-99.90,-0.81,97.13,0.422,0.571,-0.510,0.486
56663.000000,0.989,-0.015,-0.172,-0.03,0.06,-0.04,-42.04,0.54,-25.08,-99.90,-0.81,97.13,0.422,0.571,-0.510,0.486
56673.000000,0.990,-0.015,-0.174,0.05,0.14,0.02,-42.13,0.81,-25.04,-99.89,-0.81,97.13,0.422,0.571,-0.510,0.486
56683.000000,0.990,-0.013,-0.176,0.05,0.08,0.06,-41.85,0.39,-24.75,-99.89,-0.81,97.13,0.422,0.571,-0.510,0.486
56693.000000,0.988,-0.013,-0.172,0.01,0.21,0.02,-41.93,0.85,-25.29,-99.89,-0.81,97.13,0.422,0.571,-0.510,0.486
56703.000000,0.989,-0.013,-0.175,-0.03,-0.04,-0.10,-41.93,0.85,-25.29,-99.89,-0.81,97.13,0.422,0.571,-0.510,0.486
56713.000000,0.989,-0.013,-0.171,0.17,0.12,0.04,-42.27,0.08,-25.21,-99.89,-0.81,97.13,0.422,0.571,-0.510,0.486
56723.000000,0.989,-0.013,-0.172,0.11,0.02,-0.08,-41.85,0.04,-25.13,-99.89,-0.81,97.13,0.422,0.571,-0.510,0.486
56733.000000,0.988,-0.015,-0.172,-0.01,0.08,-0.06,-41.93,-0.13,-25.46,-99.89,-0.81,97.13,0.422,0.571,-0.510,0.486
56743.000000,0.989,-0.015,-0.172,0.01,0.02,-0.06,-42.17,0.00,-25.33,-99.89,-0.81,97.13,0.422,0.571,-0.510,0.486
56753.000000,0.988,-0.015,-0.171,0.05,-0.04,-0.04,-42.17,0.00,-25.33,-99.89,-0.81,97.13,0.422,0.571,-0.510,0.486
56763.000000,0.986,-0.013,-0.175,0.15,0.02,0.06,-41.98,0.39,-25.04,-99.89,-0.81,97.13,0.422,0.571,-0.510,0.486
56773.000000,0.989,-0.016,-0.170,0.07,0.10,-0.02,-42.08,-0.27,-25.04,-99.90,-0.81,97.13,0.422,0.571,-0.510,0.486
56783.000000,0.989,-0.017,-0.175,0.13,0.08,-0.02,-42.35,0.21,-25.17,-99.89,-0.81,97.13,0.422,0.571,-0.510,0.486
56793.000000,0.992,-0.015,-0.175,0.05,0.02,-0.00,-42.35,0.21,-25.17,-99.89,-0.81,97.13,0.422,0.571,-0.510,0.486
56803.000000,0.990,-0.013,-0.175,-0.01,0.14,-0.04,-42.35,0.21,-25.17,-99.90,-0.81,97.13,0.422,0.571,-0.510,0.486
56813.000000,0.992,-0.015,-0.175,0.03,0.04,0.02,-41.63,0.21,-25.13,-99.90,-0.81,97.13,0.422,0.571,-0.510,0.486
56823.000000,0.988,-0.013,-0.174,-0.03,0.08,-0.02,-41.63,0.21,-25.13,-99.90,-0.81,97.13,0.422,0.571,-0.510,0.486
56833.000000,0.988,-0.012,-0.177,0.03,0.18,-0.02,-41.63,0.21,-25.13,-99.90,-0.81,97.13,0.422,0.571,-0.510,0.486
56843.000000,0.988,-0.015,-0.175,0.11,-0.12,0.08,-41.52,0.35,-25.50,-99.90,-0.81,97.13,0.422,0.571,-0.510,0.486
56853.000000,0.986,-0.016,-0.172,-0.03,-0.06,-0.02,-41.58,0.77,-25.29,-99.90,-0.81,97.13,0.422,0.571,-0.510,0.486
56863.000000,0.990,-0.015,-0.171,-0.05,-0.04,-0.08,-42.31,1.13,-25.42,-99.90,-0.81,97.13,0.422,0.571,-0.510,0.486
56873.000000,0.989,-0.015,-0.172,-0.03,0.10,-0.06,-42.39,0.63,-25.29,-99.90,-0.81,97.13,0.422,0.571,-0.510,0.486
56883.000000,0.986,-0.016,-0.175,0.13,-0.12,0.02,-42.31,0.31,-25.08,-99.90,-0.81,97.13,0.422,0.571,-0.510,0.486
56893.000000,0.989,-0.012,-0.175,0.11,0.10,0.04,-42.54,0.31,-25.00,-99.90,-0.81,97.13,0.422,0.571,-0.510,0.486
56903.000000,0.992,-0.015,-0.174,0.03,0.14,-0.08,-42.43,0.77,-25.38,-99.90,-0.81,97.13,0.422,0.571,-0.510,0.486
56913.000000,0.990,-0.013,-0.167,-0.03,0.04,-0.06,-42.31,0.63,-25.13,-99.90,-0.81,97.13,0.422,0.571,-0.510,0.486
56923.000000,0.988,-0.012,-0.174,0.03,0.00,0.02,-42.04,0.50,-25.13,-99.90,-0.81,97.13,0.422,0.571,-0.510,0.486
56933.000000,0.990,-0.015,-0.171,0.11,0.16,0.06,-42.35,0.21,-25.33,-99.90,-0.81,97.13,0.422,0.571,-0.510,0.486
56943.000000,0.990,-0.013,-0.170,0.03,0.08,0.02,-42.63,0.50,-25.50,-99.90,-0.81,97.13,0.422,0.571,-0.510,0.486
56953.000000,0.992,-0.012,-0.175,0.05,0.00,-0.00,-42.50,0.27,-25.33,-99.90,-0.81,97.13,0.422,0.571,-0.510,0.486
56963.000000,0.989,-0.011,-0.174,0.07,-0.02,-0.11,-42.17,0.63,-25.25,-99.90,-0.81,97.13,0.422,0.571,-0.510,0.486
56973.000000,0.989,-0.015,-0.174,0.03,0.08,-0.02,-42.31,0.08,-25.38,-99.90,-0.81,97.13,0.422,0.571,-0.510,0.486
56983.000000,0.989,-0.013,-0.167,-0.03,0.04,0.02,-42.13,0.13,-25.21,-99.90,-0.81,97.13,0.422,0.571,-0.510,0.486
56993.000000,0.989,-0.013,-0.175,0.07,0.02,0.02,-42.04,0.21,-25.25,-99.90,-0.81,97.13,0.422,0.571,-0.510,0.486
57003.000000,0.990,-0.015,-0.174,0.05,-0.06,-0.06,-42.63,0.21,-24.79,-99.90,-0.81,97.13,0.422,0.571,-0.510,0.486
57013.000000,0.988,-0.013,-0.172,0.05,0.04,0.06,-42.08,0.08,-25.29,-99.90,-0.81,97.13,0.422,0.571,-0.510,0.486
57023.000000,0.993,-0.016,-0.171,0.01,0.08,-0.04,-43.00,0.04,-25.13,-99.90,-0.81,97.13,0.422,0.571,-0.510,0.486
57033.000000,0.986,-0.013,-0.171,0.03,0.04,-0.00,-42.96,0.27,-24.96,-99.90,-0.81,97.13,0.422,0.571,-0.510,0.486
57043.000000,0.988,-0.015,-0.171,0.03,0.02,-0.00,-43.00,0.27,-25.29,-99.90,-0.81,97.13,0.422,0.571,-0.510,0.486
57053.000000,0.990,-0.015,-0.174,0.01,-0.06,0.02,-43.08,0.39,-25.13,-99.90,-0.81,97.13,0.422,0.571,-0.510,0.486
57063.000000,0.986,-0.015,-0.172,0.11,0.12,-0.00,-42.13,-0.27,-25.38,-99.90,-0.81,97.13,0.422,0.571,-0.510,0.486
57073.000000,0.989,-0.012,-0.174,0.07,-0.06,-0.08,-42.67,-0.17,-25.08,-99.90,-0.81,97.13,0.422,0.571,-0.510,0.486
57083.000000,0.990,-0.013,-0.174,-0.11,0.12,0.02,-42.35,-0.54,-25.50,-99.91,-0.81,97.13,0.422,0.571,-0.510,0.486
57093.000000,0.990,-0.015,-0.171,-0.01,0.06,-0.08,-42.08,-0.27,-25.00,-99.91,-0.81,97.13,0.422,0.571,-0.510,0.486
57103.000000,0.989,-0.013,-0.172,-0.05,0.10,-0.02,-42.50,-0.39,-25.13,-99.90,-0.81,97.13,0.422,0.571,-0.510,0.486
57113.000000,0.986,-0.015,-0.171,0.07,0.12,-0.02,-42.43,-0.04,-25.42,-99.90,-0.81,97.13,0.422,0.571,-0.510,0.486
57123.000000,0.990,-0.012,-0.175,0.09,0.04,0.02,-42.31,-0.27,-25.08,-99.90,-0.81,97.13,0.422,0.571,-0.510,0.486
57133.000000,0.988,-0.017,-0.175,0.11,0.08,-0.04,-42.50,0.04,-24.75,-99.90,-0.81,97.13,0.422,0.571,-0.510,0.486
57143.000000,0.988,-0.015,-0.171,0.07,0.08,-0.08,-42.35,0.08,-24.79,-99.90,-0.81,97.13,0.422,0.571,-0.510,0.486
57153.000000,0.989,-0.016,-0.172,0.03,0.23,-0.00,-42.58,-0.31,-24.79,-99.90,-0.81,97.13,0.422,0.571,-0.510,0.486
57163.000000,0.988,-0.015,-0.171,-0.05,0.02,0.02,-41.35,0.89,-25.33,-99.90,-0.81,97.13,0.422,0.571,-0.510,0.486
57173.000000,0.988,-0.016,-0.171,0.09,0.16,0.08,-41.63,1.23,-25.17,-99.90,-0.81,97.13,0.422,0.571,-0.510,0.486
57183.000000,0.990,-0.012,-0.171,0.05,0.16,-0.04,-41.35,0.85,-25.63,-99.90,-0.81,97.13,0.422,0.571,-0.510,0.486
57193.000000,0.988,-0.012,-0.172,0.01,0.00,0.02,-41.35,1.27,-25.54,-99.90,-0.81,97.13,0.422,0.571,-0.510,0.486
57203.000000,0.988,-0.015,-0.170,0.07,0.23,0.10,-41.48,1.04,-25.54,-99.90,-0.81,97.13,0.422,0.571,-0.510,0.486
57213.000000,0.989,-0.015,-0.174,0.09,0.02,0.02,-41.89,0.67,-25.21,-99.90,-0.81,97.13,0.422,0.571,-0.510,0.486
57223.000000,0.986,-0.016,-0.171,0.01,0.06,-0.04,-41.58,0.67,-25.13,-99.90,-0.81,97.13,0.422,0.571,-0.510,0.486
57233.000000,0.990,-0.015,-0.174,0.05,0.06,-0.02,-41.67,0.21,-25.33,-99.90,-0.81,97.13,0.422,0.571,-0.510,0.486
57243.000000,0.993,-0.013,-0.174,-0.01,0.12,-0.02,-41.58,1.00,-25.38,-99.90,-0.81,97.13,0.422,0.571,-0.510,0.486
57253.000000,0.988,-0.013,-0.171,0.05,0.10,0.08,-41.89,0.58,-25.17,-99.90,-0.81,97.13,0.422,0.571,-0.510,0.486
57263.000000,0.988,-0.013,-0.172,0.07,0.10,-0.02,-41.85,0.73,-25.33,-99.90,-0.82,97.13,0.422,0.571,-0.510,0.486
57273.000000,0.986,-0.013,-0.172,-0.01,0.14,0.04,-41.43,0.54,-25.21,-99.90,-0.82,97.13,0.422,0.571,-0.510,0.486
57283.000000,0.988,-0.017,-0.172,0.07,0.10,-0.04,-41.67,0.50,-25.46,-99.90,-0.82,97.13,0.422,0.571,-0.510,0.486
57293.000000,0.989,-0.016,-0.172,0.03,0.04,0.02,-41.39,0.67,-25.38,-99.90,-0.82,97.13,0.422,0.571,-0.510,0.486
57303.000000,0.990,-0.013,-0.176,0.09,-0.04,0.02,-41.63,0.85,-25.04,-99.90,-0.82,97.13,0.422,0.571,-0.510,0.486
57313.000000,0.988,-0.012,-0.174,0.01,0.04,0.02,-41.25,-0.13,-25.25,-99.90,-0.82,97.13,0.422,0.571,-0.510,0.486
57323.000000,0.989,-0.015,-0.167,-0.01,0.06,-0.06,-41.06,0.00,-25.21,-99.90,-0.82,97.13,0.422,0.571,-0.510,0.486
57333.000000,0.992,-0.011,-0.170,0.03,-0.10,-0.13,-41.17,-0.04,-24.83,-99.90,-0.82,97.13,0.422,0.571,-0.510,0.486
57343.000000,0.990,-0.011,-0.175,0.09,0.04,0.02,-41.06,-0.21,-25.13,-99.90,-0.82,97.13,0.422,0.571,-0.510,0.486
57353.000000,0.986,-0.013,-0.172,-0.05,0.16,0.06,-41.63,-0.13,-24.79,-99.90,-0.82,97.13,0.422,0.571,-0.510,0.486
57363.000000,0.990,-0.013,-0.172,0.05,0.00,-0.00,-41.98,0.96,-25.42,-99.90,-0.82,97.13,0.422,0.571,-0.510,0.486
57373.000000,0.990,-0.012,-0.176,-0.01,0.02,-0.06,-41.89,0.58,-25.33,-99.90,-0.82,97.13,0.422,0.571,-0.510,0.486
57383.000000,0.992,-0.011,-0.172,-0.03,0.04,0.06,-42.04,0.63,-25.04,-99.90,-0.82,97.13,0.422,0.571,-0.510,0.486
57393.000000,0.989,-0.015,-0.176,0.01,0.14,-0.06,-42.04,1.00,-25.21,-99.90,-0.82,97.13,0.422,0.571,-0.510,0.486
57403.000000,0.989,-0.013,-0.172,0.01,0.00,-0.04,-41.93,0.67,-25.38,-99.90,-0.82,97.13,0.422,0.571,-0.510,0.486
57413.000000,0.988,-0.013,-0.171,0.07,0.02,-0.10,-41.93,-0.39,-25.29,-99.90,-0.82,97.13,0.422,0.571,-0.510,0.486
57423.000000,0.990,-0.016,-0.174,-0.03,0.08,-0.02,-42.13,-0.67,-25.17,-99.90,-0.81,97.13,0.422,0.571,-0.510,0.486
57433.000000,0.989,-0.015,-0.171,0.07,0.08,-0.02,-42.04,-0.58,-25.25,-99.90,-0.81,97.13,0.422,0.571,-0.510,0.486
57443.000000,0.989,-0.017,-0.171,-0.07,0.04,0.02,-41.98,-0.31,-25.42,-99.90,-0.81,97.13,0.422,0.571,-0.510,0.486
57453.000000,0.989,-0.016,-0.172,0.01,0.00,0.04,-42.27,-0.81,-25.29,-99.90,-0.81,97.13,0.422,0.571,-0.510,0.486
57463.000000,0.988,-0.013,-0.172,0.03,0.08,0.06,-41.43,0.85,-25.25,-99.90,-0.82,97.13,0.422,0.571,-0.510,0.486
57473.000000,0.990,-0.013,-0.172,0.09,0.02,-0.00,-41.02,0.89,-25.75,-99.90,-0.82,97.13,0.422,0.571,-0.510,0.486
57483.000000,0.988,-0.015,-0.172,0.07,0.06,-0.02,-41.17,0.35,-25.42,-99.90,-0.82,97.13,0.422,0.571,-0.510,0.486
57493.000000,0.990,-0.013,-0.174,0.05,0.00,-0.04,-41.39,0.85,-25.63,-99.90,-0.82,97.13,0.422,0.571,-0.510,0.486
57503.000000,0.989,-0.013,-0.176,-0.05,0.00,0.04,-41.52,0.85,-25.08,-99.90,-0.82,97.13,0.422,0.571,-0.510,0.486
57513.000000,0.990,-0.013,-0.172,0.01,-0.06,-0.02,-41.48,0.73,-25.21,-99.90,-0.82,97.13,0.422,0.571,-0.510,0.486
57523.000000,0.989,-0.013,-0.174,0.03,0.10,-0.06,-41.52,0.54,-25.25,-99.90,-0.82,97.13,0.422,0.571,-0.510,0.486
57533.000000,0.989,-0.016,-0.174,0.03,0.08,-0.00,-41.63,0.58,-25.08,-99.90,-0.82,97.13,0.422,0.571,-0.510,0.486
57543.000000,0.990,-0.017,-0.170,-0.01,0.02,-0.06,-41.52,0.50,-25.54,-99.90,-0.82,97.13,0.422,0.571,-0.510,0.486
57553.000000,0.990,-0.013,-0.174,0.05,0.10,-0.02,-41.48,0.54,-25.38,-99.90,-0.82,97.13,0.422,0.571,-0.510,0.486
57563.000000,0.989,-0.015,-0.174,0.01,0.04,-0.04,-42.63,0.67,-25.46,-99.90,-0.82,97.13,0.422,0.571,-0.510,0.486
57573.000000,0.986,-0.015,-0.175,0.01,0.00,-0.06,-42.63,0.63,-25.58,-99.90,-0.82,97.13,0.422,0.571,-0.510,0.486
57583.000000,0.986,-0.013,-0.172,0.05,0.00,0.10,-42.96,1.08,-25.42,-99.90,-0.81,97.13,0.422,0.571,-0.510,0.486
57593.000000,0.989,-0.016,-0.170,0.05,0.12,-0.02,-42.54,0.58,-25.17,-99.90,-0.82,97.13,0.422,0.571,-0.510,0.486
57603.000000,0.990,-0.012,-0.171,-0.01,0.04,-0.00,-42.77,0.67,-25.04,-99.90,-0.82,97.13,0.422,0.571,-0.510,0.486
57613.000000,0.989,-0.013,-0.174,-0.05,0.02,-0.00,-42.50,1.88,-25.17,-99.90,-0.82,97.13,0.422,0.571,-0.510,0.486
57623.000000,0.986,-0.015,-0.171,0.07,0.02,-0.00,-42.35,1.88,-24.88,-99.90,-0.82,97.13,0.422,0.571,-0.510,0.486
57633.000000,0.989,-0.016,-0.177,0.09,0.10,-0.08,-42.13,1.54,-25.29,-99.90,-0.82,97.13,0.422,0.571,-0.510,0.486
57643.000000,0.989,-0.017,-0.175,0.03,0.06,0.06,-42.08,2.00,-25.00,-99.90,-0.82,97.13,0.422,0.571,-0.510,0.486
57653.000000,0.990,-0.015,-0.170,-0.03,0.12,-0.10,-42.04,1.92,-25.21,-99.90,-0.82,97.13,0.422,0.571,-0.510,0.486
57663.000000,0.989,-0.013,-0.171,0.07,0.10,0.02,-42.63,1.13,-25.38,-99.90,-0.82,97.13,0.422,0.571,-0.510,0.486
57673.000000,0.989,-0.015,-0.171,-0.05,0.08,-0.06,-42.58,1.31,-25.42,-99.90,-0.82,97.13,0.422,0.571,-0.510,0.486
57684.000000,0.992,-0.012,-0.172,-0.01,0.10,-0.06,-42.96,1.08,-25.13,-99.90,-0.82,97.13,0.422,0.571,-0.510,0.486
57694.000000,0.988,-0.013,-0.176,-0.03,0.06,-0.02,-42.58,1.46,-25.21,-99.90,-0.82,97.13,0.422,0.571,-0.510,0.486
57704.000000,0.989,-0.015,-0.170,-0.01,0.08,-0.08,-42.85,1.00,-25.17,-99.90,-0.82,97.13,0.422,0.571,-0.510,0.486
57714.000000,0.988,-0.015,-0.172,0.05,-0.02,-0.00,-43.04,1.64,-25.29,-99.90,-0.81,97.13,0.422,0.571,-0.510,0.486
57724.000000,0.989,-0.017,-0.177,0.05,0.00,-0.02,-43.23,1.64,-25.46,-99.90,-0.81,97.13,0.422,0.571,-0.510,0.486
57734.000000,0.990,-0.015,-0.170,0.05,0.02,-0.04,-43.00,1.68,-25.13,-99.90,-0.81,97.13,0.422,0.571,-0.510,0.486
57744.000000,0.990,-0.015,-0.174,0.05,0.06,-0.02,-43.23,1.81,-25.29,-99.90,-0.81,97.13,0.422,0.571,-0.510,0.486
57754.000000,0.988,-0.016,-0.172,0.01,-0.02,0.08,-43.31,2.08,-25.21,-99.90,-0.81,97.13,0.422,0.571,-0.510,0.486
57764.000000,0.989,-0.013,-0.172,-0.05,0.16,-0.02,-42.54,0.00,-25.25,-99.91,-0.81,97.13,0.422,0.571,-0.510,0.486
57774.000000,0.988,-0.013,-0.170,0.03,-0.02,-0.13,-42.85,-0.27,-25.08,-99.90,-0.81,97.13,0.422,0.571,-0.510,0.486
57784.000000,0.986,-0.015,-0.172,0.15,0.04,0.04,-42.50,0.27,-25.17,-99.90,-0.81,97.13,0.422,0.571,-0.510,0.486
57794.000000,0.990,-0.013,-0.171,0.05,-0.02,0.02,-42.67,-0.13,-25.21,-99.90,-0.81,97.13,0.422,0.571,-0.510,0.486
57804.000000,0.990,-0.012,-0.171,0.01,-0.04,0.04,-42.58,-0.13,-25.00,-99.91,-0.82,97.13,0.422,0.571,-0.510,0.486
57814.000000,0.988,-0.015,-0.175,-0.01,0.14,-0.00,-41.67,1.35,-25.25,-99.91,-0.82,97.13,0.422,0.571,-0.510,0.486
57824.000000,0.988,-0.012,-0.174,-0.01,0.06,-0.04,-41.71,1.04,-24.96,-99.91,-0.81,97.13,0.422,0.571,-0.510,0.486
57834.000000,0.984,-0.019,-0.167,0.07,0.20,0.02,-41.63,1.27,-24.88,-99.91,-0.82,97.13,0.422,0.571,-0.510,0.486
57844.000000,0.990,-0.016,-0.174,0.03,0.16,-0.00,-41.67,1.13,-25.17,-99.91,-0.82,97.13,0.422,0.571,-0.510,0.486
57854.000000,0.989,-0.015,-0.174,0.03,-0.02,0.04,-41.48,1.08,-25.08,-99.90,-0.82,97.13,0.422,0.571,-0.510,0.486
57864.000000,0.988,-0.013,-0.175,-0.01,0.06,0.02,-41.48,1.35,-25.29,-99.91,-0.82,97.13,0.422,0.571,-0.510,0.486
57874.000000,0.990,-0.017,-0.175,0.05,-0.02,-0.00,-41.25,1.35,-25.79,-99.90,-0.82,97.13,0.422,0.571,-0.510,0.486
57884.000000,0.989,-0.015,-0.172,0.11,-0.04,-0.06,-41.48,1.27,-25.38,-99.91,-0.82,97.13,0.422,0.571,-0.510,0.486
57894.000000,0.988,-0.013,-0.167,0.05,-0.08,-0.02,-41.25,0.96,-25.50,-99.91,-0.82,97.13,0.422,0.571,-0.510,0.486
57904.000000,0.989,-0.016,-0.170,0.11,0.20,-0.06,-41.17,1.27,-25.67,-99.91,-0.82,97.13,0.422,0.571,-0.510,0.486
57914.000000,0.989,-0.015,-0.171,0.01,0.08,-0.02,-40.71,1.18,-25.33,-99.91,-0.82,97.13,0.422,0.571,-0.510,0.486
57924.000000,0.986,-0.015,-0.172,0.05,0.04,0.10,-40.98,1.13,-25.29,-99.91,-0.82,97.13,0.422,0.571,-0.510,0.486
57934.000000,0.989,-0.016,-0.176,0.09,0.02,-0.04,-41.25,1.27,-25.50,-99.91,-0.82,97.13,0.422,0.571,-0.510,0.486
57944.000000,0.989,-0.016,-0.171,0.09,0.06,-0.00,-41.02,1.46,-25.25,-99.91,-0.82,97.13,0.422,0.571,-0.510,0.486
57954.000000,0.985,-0.015,-0.171,0.01,0.04,-0.06,-40.88,1.46,-25.29,-99.91,-0.82,97.13,0.422,0.571,-0.510,0.486
57964.000000,0.992,-0.016,-0.174,0.07,0.08,-0.02,-40.93,0.39,-25.29,-99.91,-0.82,97.13,0.422,0.571,-0.510,0.486
57974.000000,0.990,-0.015,-0.171,0.01,0.10,0.02,-41.25,0.13,-25.54,-99.91,-0.82,97.13,0.422,0.571,-0.510,0.486
57984.000000,0.986,-0.013,-0.176,0.07,-0.12,-0.00,-41.39,-0.08,-25.58,-99.91,-0.82,97.13,0.422,0.571,-0.510,0.486
57994.000000,0.989,-0.012,-0.171,-0.03,-0.08,-0.08,-41.06,0.17,-25.33,-99.91,-0.82,97.13,0.422,0.571,-0.510,0.486
58004.000000,0.990,-0.015,-0.174,0.05,0.16,-0.08,-41.39,-0.04,-24.96,-99.91,-0.82,97.13,0.422,0.571,-0.510,0.486
58014.000000,0.990,-0.011,-0.170,0.03,0.08,-0.15,-41.52,0.85,-25.38,-99.91,-0.82,97.13,0.422,0.571,-0.510,0.486
58024.000000,0.990,-0.015,-0.175,0.05,-0.02,-0.00,-41.21,1.00,-25.13,-99.91,-0.82,97.13,0.422,0.571,-0.510,0.486
58034.000000,0.989,-0.015,-0.171,0.03,-0.06,-0.04,-41.67,1.13,-25.25,-99.91,-0.82,97.13,0.422,0.571,-0.510,0.486
58044.000000,0.990,-0.013,-0.175,0.01,-0.02,-0.04,-40.93,1.18,-25.50,-99.91,-0.82,97.13,0.422,0.571,-0.510,0.486
58054.000000,0.986,-0.016,-0.171,-0.03,0.14,-0.04,-41.48,0.89,-25.63,-99.91,-0.82,97.13,0.422,0.571,-0.510,0.486
58064.000000,0.988,-0.015,-0.175,0.09,0.02,0.10,-40.48,0.96,-25.29,-99.91,-0.82,97.13,0.422,0.571,-0.510,0.486
58074.000000,0.989,-0.016,-0.174,0.07,0.06,0.04,-40.14,0.54,-25.17,-99.91,-0.82,97.13,0.422,0.571,-0.510,0.486
58084.000000,0.990,-0.013,-0.172,0.07,0.10,-0.04,-40.83,0.96,-24.63,-99.91,-0.82,97.13,0.422,0.571,-0.510,0.486
58094.000000,0.989,-0.015,-0.176,0.03,0.10,-0.00,-40.83,1.18,-24.96,-99.91,-0.82,97.13,0.422,0.571,-0.510,0.486
58104.000000,0.986,-0.013,-0.170,0.01,0.14,-0.08,-40.79,1.27,-25.25,-99.91,-0.82,97.13,0.422,0.571,-0.510,0.486
58114.000000,0.989,-0.015,-0.175,0.01,-0.02,-0.00,-41.43,0.77,-25.33,-99.91,-0.82,97.13,0.422,0.571,-0.510,0.486
58124.000000,0.990,-0.015,-0.175,0.03,0.04,-0.08,-41.93,0.73,-24.88,-99.91,-0.82,97.13,0.422,0.571,-0.510,0.486
58134.000000,0.988,-0.013,-0.168,0.05,0.12,0.04,-41.89,0.81,-24.92,-99.91,-0.82,97.13,0.422,0.571,-0.510,0.486
58144.000000,0.990,-0.012,-0.172,0.11,-0.02,-0.04,-41.93,1.08,-24.75,-99.91,-0.82,97.13,0.422,0.571,-0.510,0.486
58154.000000,0.989,-0.015,-0.176,0.03,0.06,0.04,-41.81,0.89,-24.83,-99.91,-0.82,97.13,0.422,0.571,-0.510,0.486
58164.000000,0.988,-0.016,-0.171,0.07,0.02,-0.00,-42.08,1.54,-25.25,-99.91,-0.82,97.13,0.422,0.571,-0.510,0.486
58174.000000,0.986,-0.013,-0.175,-0.11,0.06,-0.02,-41.89,1.50,-25.04,-99.91,-0.82,97.13,0.422,0.571,-0.510,0.486
58184.000000,0.989,-0.015,-0.172,0.03,0.10,0.02,-42.31,1.35,-25.33,-99.91,-0.82,97.13,0.422,0.571,-0.510,0.486
58194.000000,0.988,-0.015,-0.175,0.01,0.08,-0.04,-42.31,1.68,-25.13,-99.91,-0.82,97.13,0.422,0.571,-0.510,0.486
58204.000000,0.989,-0.016,-0.171,-0.01,0.10,-0.02,-41.93,1.04,-25.58,-99.91,-0.82,97.13,0.422,0.571,-0.510,0.486
58214.000000,0.989,-0.015,-0.170,-0.01,0.06,-0.12,-41.67,1.18,-25.17,-99.91,-0.82,97.13,0.422,0.571,-0.510,0.486
58224.000000,0.986,-0.013,-0.172,0.09,0.00,-0.02,-41.93,1.04,-25.08,-99.91,-0.82,97.13,0.422,0.571,-0.510,0.486
58234.000000,0.990,-0.015,-0.174,0.01,0.06,-0.08,-41.75,0.63,-25.29,-99.91,-0.82,97.13,0.422,0.571,-0.510,0.486
58244.000000,0.990,-0.015,-0.167,-0.01,0.02,-0.04,-41.98,1.04,-25.08,-99.91,-0.82,97.13,0.422,0.571,-0.510,0.486
58254.000000,0.989,-0.015,-0.175,0.07,0.04,-0.02,-42.08,1.18,-25.21,-99.91,-0.82,97.13,0.422,0.571,-0.510,0.486
58264.000000,0.990,-0.012,-0.174,-0.01,0.08,0.04,-41.81,0.89,-25.29,-99.91,-0.82,97.13,0.422,0.571,-0.510,0.486
58274.000000,0.988,-0.011,-0.171,0.09,0.10,0.02,-42.13,1.27,-24.92,-99.91,-0.82,97.13,0.422,0.571,-0.510,0.486
58284.000000,0.988,-0.015,-0.172,-0.01,0.06,-0.02,-42.21,0.54,-25.00,-99.91,-0.82,97.13,0.422,0.571,-0.510,0.486
58294.000000,0.989,-0.013,-0.171,-0.01,0.04,-0.00,-42.17,0.96,-25.42,-99.91,-0.82,97.13,0.422,0.571,-0.510,0.486
58304.000000,0.989,-0.017,-0.172,0.07,0.00,-0.08,-41.85,0.67,-25.29,-99.91,-0.82,97.13,0.422,0.571,-0.510,0.486
58314.000000,0.990,-0.012,-0.175,0.01,0.16,-0.00,-41.89,1.04,-25.17,-99.91,-0.82,97.13,0.422,0.571,-0.510,0.486
58324.000000,0.989,-0.012,-0.176,0.01,-0.04,-0.02,-41.89,0.77,-25.29,-99.91,-0.82,97.13,0.422,0.571,-0.510,0.486
58334.000000,0.986,-0.013,-0.171,-0.05,0.02,-0.00,-42.13,0.39,-25.13,-99.91,-0.82,97.13,0.422,0.571,-0.510,0.486
58344.000000,0.988,-0.013,-0.172,0.07,0.14,-0.02,-41.89,0.54,-25.29,-99.91,-0.82,97.13,0.422,0.571,-0.510,0.486
58354.000000,0.988,-0.012,-0.175,-0.05,0.00,-0.06,-41.85,0.27,-25.75,-99.91,-0.82,97.13,0.422,0.571,-0.510,0.486
58364.000000,0.988,-0.015,-0.174,0.09,0.14,-0.02,-41.85,0.27,-25.75,-99.91,-0.82,97.13,0.422,0.571,-0.510,0.486
58374.000000,0.988,-0.012,-0.172,0.01,0.10,-0.02,-41.81,1.35,-25.38,-99.91,-0.81,97.13,0.422,0.571,-0.510,0.486
58384.000000,0.989,-0.015,-0.171,-0.05,-0.02,-0.02,-41.85,1.04,-25.38,-99.91,-0.81,97.13,0.422,0.571,-0.510,0.486
58394.000000,0.990,-0.013,-0.171,-0.01,0.02,-0.02,-41.67,1.18,-25.46,-99.91,-0.81,97.13,0.422,0.571,-0.510,0.486
58404.000000,0.990,-0.011,-0.174,-0.03,0.08,-0.00,-42.08,1.13,-25.13,-99.91,-0.81,97.13,0.422,0.571,-0.510,0.486
58414.000000,0.992,-0.017,-0.175,-0.03,0.08,-0.12,-42.08,1.13,-25.13,-99.91,-0.81,97.13,0.422,0.571,-0.510,0.486
58424.000000,0.990,-0.017,-0.170,0.01,-0.04,-0.00,-40.64,0.96,-24.92,-99.91,-0.81,97.13,0.422,0.571,-0.510,0.486
58434.000000,0.988,-0.013,-0.170,-0.01,0.12,-0.02,-40.75,1.27,-25.46,-99.91,-0.81,97.13,0.422,0.571,-0.510,0.486
58444.000000,0.989,-0.015,-0.171,0.11,0.04,-0.06,-40.83,1.58,-25.17,-99.91,-0.81,97.13,0.422,0.571,-0.510,0.486
58454.000000,0.988,-0.012,-0.174,0.03,-0.06,0.04,-40.88,1.35,-25.13,-99.91,-0.81,97.13,0.422,0.571,-0.510,0.486
58464.000000,0.989,-0.013,-0.175,0.05,0.04,0.12,-40.88,1.35,-25.13,-99.91,-0.81,97.13,0.422,0.571,-0.510,0.486
58474.000000,0.988,-0.013,-0.170,-0.01,0.18,0.06,-42.13,0.35,-25.13,-99.91,-0.81,97.13,0.422,0.571,-0.510,0.486
58484.000000,0.989,-0.017,-0.171,0.01,0.02,-0.04,-42.08,0.81,-25.38,-99.91,-0.81,97.13,0.422,0.571,-0.510,0.486
58494.000000,0.988,-0.013,-0.172,-0.01,0.12,-0.00,-42.13,0.96,-25.13,-99.91,-0.81,97.13,0.422,0.571,-0.510,0.486
58504.000000,0.990,-0.013,-0.170,0.01,0.06,-0.00,-42.35,0.35,-25.25,-99.91,-0.81,97.13,0.422,0.571,-0.510,0.486
58514.000000,0.992,-0.012,-0.174,0.07,0.10,-0.02,-42.35,0.35,-25.25,-99.91,-0.81,97.13,0.422,0.571,-0.510,0.486
58524.000000,0.989,-0.015,-0.174,0.03,0.10,-0.04,-41.71,0.63,-24.79,-99.91,-0.82,97.13,0.422,0.571,-0.510,0.486
58534.000000,0.988,-0.013,-0.170,0.03,0.06,-0.00,-41.75,0.85,-25.21,-99.91,-0.81,97.13,0.422,0.571,-0.510,0.486
58544.000000,0.989,-0.012,-0.174,-0.07,0.02,-0.00,-42.08,0.85,-24.96,-99.91,-0.81,97.13,0.422,0.571,-0.510,0.486
58554.000000,0.989,-0.015,-0.171,0.07,-0.04,0.02,-41.98,0.67,-25.13,-99.91,-0.81,97.13,0.422,0.571,-0.510,0.486
58564.000000,0.989,-0.012,-0.176,0.01,0.04,-0.00,-41.98,0.67,-25.13,-99.91,-0.82,97.13,0.422,0.571,-0.510,0.486
58574.000000,0.992,-0.010,-0.172,-0.05,0.12,-0.10,-41.39,1.00,-25.42,-99.91,-0.82,97.13,0.422,0.571,-0.510,0.486
58584.000000,0.990,-0.016,-0.170,0.07,0.04,-0.06,-41.75,0.67,-25.33,-99.91,-0.81,97.13,0.422,0.571,-0.510,0.486
58594.000000,0.990,-0.013,-0.175,-0.03,0.27,0.04,-41.48,1.04,-25.33,-99.91,-0.81,97.13,0.422,0.571,-0.510,0.486
58604.000000,0.992,-0.016,-0.168,0.07,0.00,-0.02,-41.63,0.85,-25.29,-99.91,-0.81,97.13,0.422,0.571,-0.510,0.486
58614.000000,0.988,-0.016,-0.174,-0.03,-0.08,-0.02,-41.63,0.85,-25.29,-99.91,-0.81,97.13,0.422,0.571,-0.510,0.486
58624.000000,0.990,-0.015,-0.174,0.07,0.10,-0.00,-41.52,0.63,-24.92,-99.91,-0.81,97.13,0.422,0.571,-0.510,0.486
58634.000000,0.988,-0.016,-0.171,0.05,0.10,-0.04,-41.58,0.96,-24.88,-99.91,-0.81,97.13,0.422,0.571,-0.510,0.486
58644.000000,0.989,-0.011,-0.175,0.09,-0.08,-0.04,-41.75,0.58,-24.92,-99.91,-0.81,97.13,0.422,0.571,-0.510,0.486
58654.000000,0.988,-0.013,-0.176,0.05,0.00,0.06,-41.43,0.85,-25.17,-99.91,-0.81,97.13,0.422,0.571,-0.510,0.486
58664.000000,0.990,-0.013,-0.172,-0.03,0.04,-0.04,-41.43,0.85,-25.17,-99.91,-0.81,97.13,0.422,0.571,-0.510,0.486
58674.000000,0.989,-0.015,-0.171,-0.09,-0.10,-0.06,-40.93,0.50,-25.71,-99.91,-0.81,97.13,0.422,0.571,-0.510,0.486
58684.000000,0.989,-0.013,-0.170,0.09,0.06,0.02,-40.75,0.81,-25.17,-99.91,-0.81,97.13,0.422,0.571,-0.510,0.486
58694.000000,0.989,-0.012,-0.175,0.05,0.06,0.04,-41.02,0.67,-25.50,-99.91,-0.81,97.13,0.422,0.571,-0.510,0.486
58704.000000,0.989,-0.015,-0.174,-0.09,-0.04,-0.02,-41.06,0.67,-25.25,-99.91,-0.81,97.13,0.422,0.571,-0.510,0.486
58714.000000,0.986,-0.015,-0.171,0.03,0.16,-0.02,-41.06,0.67,-25.25,-99.91,-0.81,97.13,0.422,0.571,-0.510,0.486
58724.000000,0.989,-0.012,-0.172,0.11,0.04,0.02,-42.50,0.73,-25.46,-99.91,-0.81,97.13,0.422,0.571,-0.510,0.486
58734.000000,0.988,-0.013,-0.171,0.05,0.06,-0.06,-42.50,0.73,-25.46,-99.91,-0.81,97.13,0.422,0.571,-0.510,0.486
58744.000000,0.985,-0.013,-0.171,0.05,0.10,0.04,-42.50,0.73,-25.46,-99.91,-0.81,97.13,0.422,0.571,-0.510,0.486
58754.000000,0.990,-0.015,-0.172,-0.03,0.16,0.08,-42.50,0.73,-25.46,-99.91,-0.81,97.13,0.422,0.571,-0.510,0.486
58764.000000,0.986,-0.012,-0.174,0.05,0.06,-0.00,-42.50,0.73,-25.46,-99.91,-0.81,97.13,0.422,0.571,-0.510,0.486
58774.000000,0.988,-0.013,-0.172,0.09,0.12,0.04,-41.71,0.96,-25.33,-99.91,-0.81,97.13,0.422,0.571,-0.510,0.486
58784.000000,0.986,-0.016,-0.174,-0.09,-0.14,-0.04,-41.25,0.54,-25.50,-99.91,-0.81,97.13,0.422,0.571,-0.510,0.486
58794.000000,0.989,-0.016,-0.172,0.17,0.06,-0.02,-41.93,0.54,-25.42,-99.91,-0.81,97.13,0.422,0.571,-0.510,0.486
58804.000000,0.990,-0.016,-0.175,-0.05,0.02,-0.02,-41.71,0.39,-25.29,-99.91,-0.81,97.13,0.422,0.571,-0.510,0.486
58814.000000,0.989,-0.015,-0.174,-0.05,0.16,-0.04,-41.63,0.89,-25.13,-99.91,-0.81,97.13,0.422,0.571,-0.510,0.486
58824.000000,0.989,-0.015,-0.172,-0.01,0.00,0.06,-40.25,-0.04,-25.17,-99.91,-0.81,97.13,0.422,0.571,-0.510,0.486
58834.000000,0.989,-0.012,-0.172,0.11,0.16,-0.08,-39.96,-0.27,-25.13,-99.91,-0.81,97.13,0.422,0.571,-0.510,0.486
58844.000000,0.988,-0.015,-0.171,0.07,0.08,0.04,-40.60,-0.08,-25.21,-99.91,-0.81,97.13,0.422,0.571,-0.510,0.486
58854.000000,0.989,-0.013,-0.172,0.01,0.12,-0.04,-40.38,-0.35,-25.04,-99.91,-0.81,97.13,0.422,0.571,-0.510,0.486
58864.000000,0.989,-0.015,-0.172,-0.05,0.14,-0.10,-40.56,-0.21,-25.63,-99.91,-0.81,97.13,0.422,0.571,-0.510,0.486
58874.000000,0.992,-0.015,-0.174,0.01,0.06,-0.08,-41.29,0.73,-25.25,-99.90,-0.81,97.13,0.422,0.571,-0.510,0.486
58884.000000,0.989,-0.015,-0.172,0.09,-0.12,-0.08,-41.43,0.50,-25.29,-99.90,-0.81,97.13,0.422,0.571,-0.510,0.486
58894.000000,0.990,-0.013,-0.172,0.01,-0.04,0.04,-41.89,0.35,-25.38,-99.91,-0.81,97.13,0.422,0.571,-0.510,0.486
58904.000000,0.988,-0.012,-0.174,0.07,0.25,-0.00,-41.58,0.43,-24.83,-99.91,-0.81,97.13,0.422,0.571,-0.510,0.486
58914.000000,0.992,-0.012,-0.170,0.05,-0.06,-0.08,-41.81,0.13,-25.13,-99.91,-0.81,97.13,0.422,0.571,-0.510,0.486
58924.000000,0.988,-0.013,-0.170,0.05,-0.04,-0.04,-40.60,0.54,-25.25,-99.91,-0.81,97.13,0.422,0.571,-0.510,0.486
58934.000000,0.989,-0.015,-0.175,-0.01,0.16,0.06,-40.52,0.96,-25.42,-99.91,-0.81,97.13,0.422,0.571,-0.510,0.486
58944.000000,0.989,-0.013,-0.171,0.05,0.04,-0.04,-40.60,0.85,-25.13,-99.91,-0.81,97.13,0.422,0.571,-0.510,0.486
58954.000000,0.989,-0.012,-0.172,-0.11,0.14,-0.00,-40.56,0.58,-25.17,-99.91,-0.81,97.13,0.422,0.571,-0.510,0.486
58964.000000,0.988,-0.015,-0.177,0.05,0.04,-0.06,-40.64,0.77,-25.21,-99.91,-0.81,97.13,0.422,0.571,-0.510,0.486
58974.000000,0.988,-0.013,-0.175,0.05,0.08,-0.06,-41.02,0.77,-25.33,-99.91,-0.81,97.13,0.422,0.571,-0.510,0.486
58984.000000,0.990,-0.012,-0.175,0.01,0.06,0.02,-41.48,0.50,-25.42,-99.91,-0.81,97.13,0.422,0.571,-0.510,0.486
58994.000000,0.989,-0.015,-0.174,-0.05,0.06,-0.14,-41.63,0.89,-25.46,-99.91,-0.81,97.13,0.422,0.571,-0.510,0.486
59004.000000,0.988,-0.013,-0.174,0.09,0.10,-0.00,-41.63,0.58,-25.67,-99.91,-0.81,97.13,0.422,0.571,-0.510,0.486
59014.000000,0.992,-0.016,-0.172,0.01,0.06,-0.08,-41.75,0.50,-25.33,-99.90,-0.81,97.13,0.422,0.571,-0.510,0.486
59024.000000,0.988,-0.015,-0.174,-0.03,0.04,-0.04,-40.52,0.00,-25.29,-99.90,-0.81,97.13,0.422,0.571,-0.510,0.486
59034.000000,0.990,-0.011,-0.175,-0.03,0.06,0.08,-41.06,-0.04,-25.29,-99.91,-0.81,97.13,0.422,0.571,-0.510,0.486
59044.000000,0.990,-0.015,-0.175,0.01,0.06,-0.04,-40.98,0.04,-25.29,-99.91,-0.81,97.13,0.422,0.571,-0.510,0.486
59054.000000,0.989,-0.015,-0.174,0.03,0.04,0.02,-41.29,0.13,-25.29,-99.90,-0.81,97.13,0.422,0.571,-0.510,0.486
59064.000000,0.992,-0.013,-0.172,-0.03,0.00,-0.04,-41.13,0.17,-25.33,-99.91,-0.81,97.13,0.422,0.571,-0.510,0.486
59074.000000,0.988,-0.013,-0.172,-0.05,0.08,-0.00,-41.21,0.81,-25.25,-99.91,-0.81,97.13,0.422,0.571,-0.510,0.486
59084.000000,0.988,-0.012,-0.174,-0.03,-0.02,-0.06,-41.13,1.08,-25.38,-99.91,-0.81,97.12,0.422,0.571,-0.510,0.486
59094.000000,0.986,-0.015,-0.171,0.05,0.06,-0.04,-40.98,1.00,-25.25,-99.91,-0.81,97.12,0.422,0.571,-0.510,0.486
59104.000000,0.988,-0.013,-0.174,0.03,0.08,-0.04,-41.13,1.23,-25.38,-99.91,-0.81,97.12,0.422,0.571,-0.510,0.486
59114.000000,0.990,-0.016,-0.168,-0.03,-0.04,0.06,-41.48,1.08,-25.33,-99.91,-0.81,97.12,0.422,0.571,-0.510,0.486
59124.000000,0.986,-0.016,-0.175,-0.05,0.02,-0.02,-40.88,1.18,-25.00,-99.91,-0.81,97.12,0.422,0.571,-0.510,0.486
59134.000000,0.985,-0.013,-0.176,0.07,0.14,-0.02,-40.48,1.27,-25.46,-99.91,-0.81,97.12,0.422,0.571,-0.510,0.486
59144.000000,0.990,-0.013,-0.174,0.01,0.10,-0.02,-40.83,1.35,-25.25,-99.91,-0.81,97.12,0.422,0.571,-0.510,0.486
59154.000000,0.989,-0.015,-0.174,0.11,0.10,-0.02,-40.64,0.96,-25.00,-99.91,-0.81,97.12,0.422,0.571,-0.510,0.486
59164.000000,0.985,-0.015,-0.175,0.01,0.06,-0.06,-40.48,1.54,-25.54,-99.91,-0.81,97.12,0.422,0.571,-0.510,0.486
59174.000000,0.990,-0.013,-0.171,0.05,0.18,0.02,-41.29,0.73,-25.21,-99.91,-0.81,97.12,0.422,0.571,-0.510,0.486
59184.000000,0.988,-0.015,-0.172,0.01,-0.04,0.06,-40.52,0.67,-25.71,-99.91,-0.81,97.12,0.422,0.571,-0.510,0.486
59194.000000,0.989,-0.016,-0.175,0.01,0.02,-0.04,-41.02,0.89,-25.67,-99.91,-0.81,97.12,0.422,0.571,-0.510,0.486
59204.000000,0.992,-0.013,-0.170,-0.07,0.23,-0.00,-40.98,1.00,-25.79,-99.91,-0.81,97.12,0.422,0.571,-0.510,0.486
59214.000000,0.990,-0.015,-0.170,-0.01,0.02,0.02,-40.79,0.35,-25.29,-99.91,-0.81,97.12,0.422,0.571,-0.510,0.486
59224.000000,0.988,-0.017,-0.172,0.13,-0.08,-0.17,-40.79,0.67,-25.17,-99.90,-0.81,97.12,0.422,0.571,-0.510,0.486
59234.000000,0.992,-0.013,-0.175,-0.01,0.02,-0.00,-40.88,0.73,-25.17,-99.91,-0.81,97.12,0.422,0.571,-0.510,0.486
59244.000000,0.989,-0.013,-0.171,-0.05,0.06,-0.00,-41.21,0.89,-25.00,-99.91,-0.81,97.12,0.422,0.571,-0.510,0.486
59254.000000,0.986,-0.015,-0.170,0.05,0.12,-0.00,-41.25,1.00,-25.33,-99.91,-0.81,97.12,0.422,0.571,-0.510,0.486
59264.000000,0.986,-0.015,-0.174,-0.03,-0.04,-0.00,-40.83,0.85,-25.08,-99.91,-0.81,97.12,0.422,0.571,-0.510,0.486
59274.000000,0.986,-0.013,-0.172,-0.01,0.08,-0.00,-40.33,0.96,-25.25,-99.91,-0.81,97.12,0.422,0.571,-0.510,0.486
59284.000000,0.989,-0.013,-0.174,0.11,0.20,0.04,-40.18,0.77,-25.25,-99.91,-0.81,97.12,0.422,0.571,-0.510,0.486
59294.000000,0.989,-0.015,-0.172,0.07,0.02,-0.13,-40.56,1.18,-25.58,-99.91,-0.81,97.12,0.422,0.571,-0.510,0.486
59304.000000,0.988,-0.011,-0.174,0.03,0.04,0.06,-40.71,0.85,-25.42,-99.91,-0.81,97.12,0.422,0.571,-0.510,0.486
59314.000000,0.988,-0.017,-0.168,-0.07,0.00,-0.00,-40.60,0.96,-25.29,-99.91,-0.81,97.12,0.422,0.571,-0.510,0.486
59324.000000,0.988,-0.013,-0.174,-0.01,0.06,-0.00,-40.60,1.18,-25.25,-99.91,-0.81,97.12,0.422,0.571,-0.510,0.486
59334.000000,0.986,-0.013,-0.171,-0.01,-0.06,-0.08,-40.98,0.81,-25.58,-99.91,-0.81,97.12,0.422,0.571,-0.510,0.486
59344.000000,0.989,-0.013,-0.172,-0.03,0.10,-0.08,-40.75,1.31,-25.71,-99.91,-0.81,97.12,0.422,0.571,-0.510,0.486
59354.000000,0.988,-0.017,-0.171,0.07,0.10,-0.08,-40.64,0.96,-25.25,-99.91,-0.81,97.12,0.422,0.571,-0.510,0.486
59364.000000,0.990,-0.016,-0.172,0.01,0.18,-0.06,-40.75,1.08,-25.42,-99.91,-0.81,97.12,0.422,0.571,-0.510,0.486
59374.000000,0.992,-0.013,-0.174,-0.01,0.08,-0.04,-40.42,0.63,-25.33,-99.90,-0.81,97.12,0.422,0.571,-0.510,0.486
59384.000000,0.986,-0.016,-0.176,-0.01,0.04,0.02,-40.48,0.50,-25.63,-99.90,-0.81,97.12,0.422,0.571,-0.510,0.486
59394.000000,0.989,-0.015,-0.172,0.05,0.08,-0.04,-40.06,0.39,-25.58,-99.90,-0.81,97.12,0.422,0.571,-0.510,0.486
59404.000000,0.990,-0.013,-0.170,0.01,0.02,0.04,-40.33,0.89,-25.13,-99.90,-0.81,97.12,0.422,0.571,-0.510,0.486
59414.000000,0.989,-0.015,-0.172,0.01,0.06,-0.06,-40.10,0.63,-24.88,-99.90,-0.81,97.12,0.422,0.571,-0.510,0.486
59424.000000,0.986,-0.017,-0.170,0.03,-0.04,0.02,-40.71,1.18,-25.13,-99.91,-0.81,97.12,0.422,0.571,-0.510,0.486
59434.000000,0.989,-0.015,-0.172,0.09,0.12,0.02,-40.48,0.89,-25.29,-99.91,-0.81,97.12,0.422,0.571,-0.510,0.486
59444.000000,0.989,-0.013,-0.171,-0.03,0.02,-0.04,-40.56,0.96,-25.29,-99.91,-0.81,97.12,0.422,0.571,-0.510,0.486
59454.000000,0.989,-0.015,-0.170,0.03,0.02,-0.06,-40.25,0.77,-25.29,-99.91,-0.81,97.12,0.422,0.571,-0.510,0.486
59464.000000,0.990,-0.017,-0.172,-0.01,0.14,-0.06,-40.56,1.08,-25.75,-99.91,-0.81,97.12,0.422,0.571,-0.510,0.486
59474.000000,0.989,-0.013,-0.171,0.01,0.04,-0.02,-40.18,1.00,-25.38,-99.91,-0.81,97.12,0.422,0.571,-0.510,0.486
59484.000000,0.990,-0.016,-0.175,-0.07,0.08,-0.00,-40.48,1.04,-25.46,-99.91,-0.81,97.12,0.422,0.571,-0.510,0.486
59494.000000,0.988,-0.015,-0.172,-0.03,0.16,0.02,-40.48,0.89,-25.38,-99.90,-0.81,97.12,0.422,0.571,-0.510,0.486
59504.000000,0.990,-0.013,-0.174,0.01,-0.08,-0.02,-40.56,1.13,-25.25,-99.90,-0.81,97.12,0.422,0.571,-0.510,0.486
59514.000000,0.990,-0.012,-0.172,-0.01,0.08,-0.04,-40.06,0.58,-25.33,-99.90,-0.81,97.12,0.422,0.571,-0.510,0.486
59524.000000,0.986,-0.017,-0.175,0.03,0.21,-0.02,-41.17,0.63,-25.42,-99.91,-0.81,97.12,0.422,0.571,-0.510,0.486
59534.000000,0.986,-0.016,-0.174,0.05,-0.02,-0.00,-41.58,0.58,-24.63,-99.90,-0.81,97.12,0.422,0.571,-0.510,0.486
59544.000000,0.992,-0.013,-0.174,-0.03,-0.04,-0.04,-41.43,0.73,-24.96,-99.90,-0.81,97.12,0.422,0.571,-0.510,0.486
59554.000000,0.990,-0.012,-0.175,0.13,0.06,-0.02,-41.35,0.85,-24.63,-99.91,-0.81,97.12,0.422,0.571,-0.510,0.486
59564.000000,0.988,-0.013,-0.172,0.01,0.16,-0.02,-41.39,0.85,-25.08,-99.91,-0.81,97.12,0.422,0.571,-0.510,0.486
59574.000000,0.988,-0.015,-0.174,0.13,0.04,-0.00,-40.52,1.64,-25.08,-99.90,-0.81,97.12,0.422,0.571,-0.510,0.486
59584.000000,0.989,-0.015,-0.174,0.03,-0.04,-0.08,-40.75,1.23,-24.88,-99.90,-0.81,97.12,0.422,0.571,-0.510,0.486
59594.000000,0.989,-0.013,-0.176,0.09,0.16,0.02,-40.79,1.68,-25.29,-99.91,-0.81,97.12,0.422,0.571,-0.510,0.486
59604.000000,0.989,-0.011,-0.171,-0.03,0.08,-0.06,-40.56,1.64,-24.96,-99.90,-0.81,97.12,0.422,0.571,-0.510,0.486
59614.000000,0.986,-0.011,-0.177,0.03,0.16,0.10,-40.79,1.35,-24.96,-99.90,-0.81,97.12,0.422,0.571,-0.510,0.486
59624.000000,0.985,-0.015,-0.171,0.05,0.00,-0.02,-41.75,0.96,-25.33,-99.90,-0.81,97.12,0.422,0.571,-0.510,0.486
59634.000000,0.989,-0.013,-0.176,-0.03,-0.04,-0.06,-41.85,0.77,-24.67,-99.90,-0.81,97.12,0.422,0.571,-0.510,0.486
59644.000000,0.989,-0.015,-0.170,0.05,0.16,0.04,-42.04,0.17,-25.46,-99.90,-0.81,97.12,0.422,0.571,-0.510,0.486
59654.000000,0.988,-0.013,-0.174,0.05,-0.04,-0.00,-41.93,0.73,-25.08,-99.90,-0.81,97.12,0.422,0.571,-0.510,0.486
59664.000000,0.988,-0.013,-0.172,0.09,0.08,-0.06,-41.58,0.54,-25.04,-99.90,-0.81,97.12,0.422,0.571,-0.510,0.486
59674.000000,0.988,-0.017,-0.171,-0.01,0.02,-0.06,-40.48,1.92,-25.25,-99.90,-0.81,97.12,0.422,0.571,-0.510,0.486
59684.000000,0.989,-0.015,-0.171,0.03,0.08,-0.04,-40.56,1.50,-24.96,-99.90,-0.81,97.12,0.422,0.571,-0.510,0.486
59694.000000,0.988,-0.015,-0.174,0.11,0.18,0.06,-40.52,1.50,-25.25,-99.90,-0.81,97.12,0.422,0.571,-0.510,0.486
59704.000000,0.989,-0.012,-0.172,-0.03,0.00,-0.08,-40.71,1.54,-25.25,-99.90,-0.81,97.12,0.422,0.571,-0.510,0.486
59714.000000,0.988,-0.015,-0.174,0.09,0.08,-0.04,-40.64,1.27,-25.38,-99.90,-0.81,97.12,0.422,0.571,-0.510,0.486
59724.000000,0.989,-0.015,-0.171,0.01,0.12,-0.00,-40.56,1.27,-25.21,-99.90,-0.81,97.12,0.422,0.571,-0.510,0.486
59734.000000,0.989,-0.013,-0.174,0.07,0.06,-0.08,-40.88,1.31,-25.42,-99.90,-0.81,97.12,0.422,0.571,-0.510,0.486
59744.000000,0.989,-0.011,-0.172,0.03,0.00,-0.04,-40.93,1.42,-25.17,-99.90,-0.81,97.12,0.422,0.571,-0.510,0.486
59754.000000,0.988,-0.011,-0.172,-0.01,0.02,0.02,-40.79,1.18,-25.25,-99.90,-0.81,97.12,0.422,0.571,-0.510,0.486
59764.000000,0.989,-0.012,-0.174,0.05,0.08,-0.00,-40.88,1.31,-25.08,-99.90,-0.81,97.12,0.422,0.571,-0.510,0.486
59774.000000,0.989,-0.016,-0.174,0.05,0.06,0.02,-41.48,0.77,-25.42,-99.90,-0.81,97.12,0.422,0.571,-0.510,0.486
59784.000000,0.989,-0.015,-0.176,-0.03,0.00,-0.00,-41.58,0.50,-25.25,-99.90,-0.81,97.12,0.422,0.571,-0.510,0.486
59794.000000,0.989,-0.015,-0.168,0.03,-0.04,-0.02,-41.58,0.85,-25.38,-99.90,-0.81,97.12,0.422,0.571,-0.510,0.486
59804.000000,0.986,-0.011,-0.172,0.03,0.08,-0.06,-41.35,0.89,-25.04,-99.90,-0.81,97.12,0.422,0.571,-0.510,0.486
59814.000000,0.990,-0.013,-0.175,0.03,-0.04,-0.06,-41.25,0.85,-25.29,-99.90,-0.81,97.12,0.422,0.571,-0.510,0.486
59824.000000,0.989,-0.012,-0.170,0.07,0.04,0.06,-41.02,0.85,-25.29,-99.90,-0.81,97.12,0.422,0.571,-0.510,0.486
59834.000000,0.990,-0.015,-0.174,-0.03,0.00,-0.12,-41.29,1.08,-24.92,-99.91,-0.81,97.12,0.422,0.571,-0.510,0.486
59844.000000,0.988,-0.013,-0.177,-0.07,-0.04,0.02,-40.83,0.73,-25.21,-99.91,-0.81,97.12,0.422,0.571,-0.510,0.486
59854.000000,0.992,-0.015,-0.174,0.01,0.14,-0.02,-41.35,0.73,-24.92,-99.91,-0.81,97.12,0.422,0.571,-0.510,0.486
59864.000000,0.989,-0.012,-0.174,-0.01,0.04,0.02,-41.39,0.77,-25.33,-99.91,-0.81,97.12,0.422,0.571,-0.510,0.486
59874.000000,0.989,-0.016,-0.170,-0.03,0.12,-0.04,-41.39,0.67,-25.33,-99.91,-0.81,97.12,0.422,0.571,-0.510,0.486
59884.000000,0.990,-0.017,-0.175,0.11,-0.04,-0.08,-41.17,0.85,-25.08,-99.91,-0.81,97.12,0.422,0.571,-0.510,0.486
59894.000000,0.988,-0.015,-0.171,-0.01,0.08,-0.06,-41.06,0.89,-24.75,-99.91,-0.81,97.12,0.422,0.571,-0.510,0.486
59904.000000,0.990,-0.013,-0.170,0.01,0.02,0.06,-40.83,0.63,-25.17,-99.91,-0.81,97.12,0.422,0.571,-0.510,0.486
59914.000000,0.988,-0.012,-0.174,-0.03,0.00,-0.06,-40.98,1.04,-25.33,-99.91,-0.81,97.12,0.422,0.571,-0.510,0.486
59924.000000,0.989,-0.016,-0.172,0.01,0.00,-0.00,-40.75,0.81,-25.50,-99.91,-0.81,97.12,0.422,0.571,-0.510,0.486
59934.000000,0.989,-0.012,-0.170,-0.01,0.21,-0.06,-40.79,0.77,-25.33,-99.91,-0.81,97.12,0.422,0.571,-0.510,0.486
59944.000000,0.986,-0.016,-0.176,0.05,0.08,-0.00,-40.60,0.77,-25.21,-99.91,-0.81,97.12,0.422,0.571,-0.510,0.486
59954.000000,0.989,-0.016,-0.175,0.03,0.02,-0.00,-41.02,0.81,-25.17,-99.91,-0.81,97.12,0.422,0.571,-0.510,0.486
59964.000000,0.989,-0.012,-0.170,-0.03,0.02,0.02,-40.71,0.77,-25.29,-99.91,-0.81,97.12,0.422,0.571,-0.510,0.486
59974.000000,0.990,-0.016,-0.172,-0.03,-0.10,-0.00,-41.71,0.63,-25.13,-99.91,-0.81,97.12,0.422,0.571,-0.510,0.486
59984.000000,0.989,-0.015,-0.172,0.07,-0.06,-0.11,-41.71,0.81,-24.83,-99.91,-0.81,97.12,0.422,0.571,-0.510,0.486
59994.000000,0.989,-0.013,-0.175,-0.05,-0.08,-0.02,-41.89,0.85,-25.04,-99.91,-0.81,97.12,0.422,0.571,-0.510,0.486
60004.000000,0.988,-0.012,-0.172,-0.03,0.21,-0.00,-41.89,1.00,-25.04,-99.91,-0.81,97.12,0.422,0.571,-0.510,0.486
60014.000000,0.990,-0.015,-0.174,0.07,0.02,-0.08,-41.67,1.13,-25.63,-99.91,-0.81,97.12,0.422,0.571,-0.510,0.486
60024.000000,0.986,-0.015,-0.172,-0.01,0.04,0.04,-41.13,0.89,-25.08,-99.91,-0.81,97.12,0.422,0.571,-0.510,0.486
60034.000000,0.986,-0.016,-0.167,-0.01,0.14,-0.10,-41.43,1.08,-25.29,-99.91,-0.81,97.12,0.422,0.571,-0.510,0.486
60044.000000,0.990,-0.013,-0.170,0.03,0.14,-0.02,-41.39,1.18,-25.29,-99.91,-0.81,97.12,0.422,0.571,-0.510,0.486
60054.000000,0.989,-0.013,-0.170,-0.01,0.04,0.02,-41.13,1.18,-25.50,-99.91,-0.81,97.12,0.422,0.571,-0.510,0.486
60064.000000,0.989,-0.015,-0.172,0.03,0.04,-0.00,-41.48,1.27,-25.33,-99.91,-0.81,97.12,0.422,0.571,-0.510,0.486
60074.000000,0.990,-0.016,-0.170,-0.05,0.06,-0.00,-41.48,0.89,-25.08,-99.91,-0.81,97.12,0.422,0.571,-0.510,0.486
60084.000000,0.988,-0.012,-0.171,0.01,0.08,-0.00,-41.29,0.35,-25.33,-99.91,-0.81,97.12,0.422,0.571,-0.510,0.486
60094.000000,0.988,-0.016,-0.174,0.01,0.04,-0.04,-41.29,0.43,-25.08,-99.91,-0.81,97.12,0.422,0.571,-0.510,0.486
60104.000000,0.989,-0.017,-0.172,-0.09,0.02,0.06,-41.35,0.77,-25.17,-99.91,-0.81,97.12,0.422,0.571,-0.510,0.486
60114.000000,0.988,-0.017,-0.175,-0.03,0.08,-0.10,-41.67,0.35,-25.29,-99.91,-0.81,97.12,0.422,0.571,-0.510,0.486
60125.000000,0.989,-0.015,-0.174,-0.01,0.04,-0.02,-41.39,1.23,-25.38,-99.91,-0.81,97.11,0.422,0.571,-0.510,0.486
60135.000000,0.988,-0.013,-0.172,0.05,0.16,-0.04,-41.29,1.50,-25.13,-99.91,-0.81,97.11,0.422,0.571,-0.510,0.486
60145.000000,0.990,-0.013,-0.170,0.07,0.10,-0.08,-41.52,1.31,-25.63,-99.91,-0.81,97.11,0.422,0.571,-0.510,0.486
60155.000000,0.988,-0.013,-0.174,0.05,0.12,0.06,-41.17,1.35,-25.38,-99.91,-0.81,97.12,0.422,0.571,-0.510,0.486
60165.000000,0.993,-0.011,-0.172,0.05,0.06,0.02,-41.21,1.27,-25.46,-99.91,-0.81,97.12,0.422,0.571,-0.510,0.486
60175.000000,0.988,-0.016,-0.175,0.05,0.10,-0.04,-40.98,0.13,-25.29,-99.91,-0.81,97.12,0.422,0.571,-0.510,0.486
60185.000000,0.986,-0.013,-0.174,0.01,0.08,-0.06,-40.64,-0.21,-25.38,-99.91,-0.81,97.12,0.422,0.571,-0.510,0.486
60195.000000,0.988,-0.017,-0.175,0.07,0.08,-0.04,-40.60,0.04,-25.33,-99.90,-0.81,97.12,0.422,0.571,-0.510,0.486
60205.000000,0.989,-0.015,-0.176,0.07,0.04,-0.00,-41.02,0.39,-25.63,-99.90,-0.81,97.12,0.422,0.571,-0.510,0.486
60215.000000,0.989,-0.013,-0.172,0.03,0.06,-0.02,-40.83,0.13,-25.46,-99.90,-0.81,97.12,0.422,0.571,-0.510,0.486
60225.000000,0.988,-0.015,-0.172,0.13,0.14,0.06,-41.17,0.08,-25.29,-99.90,-0.81,97.12,0.422,0.571,-0.510,0.486
60235.000000,0.988,-0.015,-0.174,-0.09,0.06,-0.04,-41.06,-0.21,-25.29,-99.90,-0.81,97.12,0.422,0.571,-0.510,0.486
60245.000000,0.993,-0.013,-0.168,0.05,0.06,-0.06,-41.06,0.00,-25.21,-99.90,-0.81,97.12,0.422,0.571,-0.510,0.486
60255.000000,0.992,-0.015,-0.170,-0.03,0.08,0.02,-40.98,-0.21,-25.29,-99.90,-0.81,97.12,0.422,0.571,-0.510,0.486
60265.000000,0.989,-0.015,-0.170,-0.05,-0.04,-0.00,-40.52,0.00,-25.38,-99.90,-0.81,97.12,0.422,0.571,-0.510,0.486
60275.000000,0.989,-0.015,-0.176,0.11,0.10,0.02,-40.52,0.00,-25.38,-99.90,-0.81,97.11,0.422,0.571,-0.510,0.486
60285.000000,0.990,-0.015,-0.172,0.01,0.04,-0.02,-41.35,0.77,-25.13,-99.90,-0.81,97.12,0.422,0.571,-0.510,0.486
60295.000000,0.989,-0.012,-0.175,-0.03,0.10,0.04,-41.48,0.50,-25.42,-99.90,-0.81,97.12,0.422,0.571,-0.510,0.486
60305.000000,0.989,-0.016,-0.170,0.05,0.06,-0.04,-41.43,0.77,-25.13,-99.90,-0.81,97.11,0.422,0.571,-0.510,0.486
60315.000000,0.989,-0.013,-0.172,0.03,-0.08,-0.02,-41.17,0.89,-25.17,-99.90,-0.81,97.11,0.422,0.571,-0.510,0.486
60325.000000,0.989,-0.017,-0.177,-0.01,0.12,-0.04,-41.17,0.89,-25.17,-99.90,-0.81,97.12,0.422,0.571,-0.510,0.486
60335.000000,0.988,-0.013,-0.171,0.03,-0.02,0.02,-40.79,0.58,-25.04,-99.90,-0.81,97.12,0.422,0.571,-0.510,0.486
60345.000000,0.988,-0.015,-0.172,0.05,0.06,-0.10,-41.39,0.81,-25.04,-99.90,-0.81,97.11,0.422,0.571,-0.510,0.486
60355.000000,0.988,-0.013,-0.170,0.07,0.02,-0.00,-41.13,0.63,-25.17,-99.90,-0.81,97.11,0.422,0.571,-0.510,0.486
60365.000000,0.989,-0.015,-0.170,0.13,0.18,-0.02,-41.25,0.58,-25.54,-99.90,-0.81,97.12,0.422,0.571,-0.510,0.486
60375.000000,0.988,-0.015,-0.174,-0.01,0.08,0.04,-41.25,0.58,-25.54,-99.90,-0.81,97.12,0.422,0.571,-0.510,0.486
60385.000000,0.989,-0.015,-0.176,0.03,0.04,0.02,-40.60,1.92,-25.00,-99.90,-0.81,97.12,0.422,0.571,-0.510,0.486
60395.000000,0.989,-0.013,-0.174,0.05,-0.02,-0.08,-40.71,1.77,-25.21,-99.90,-0.81,97.12,0.422,0.571,-0.510,0.486
60405.000000,0.988,-0.012,-0.168,0.07,0.14,-0.02,-40.93,1.88,-25.08,-99.90,-0.81,97.12,0.422,0.571,-0.510,0.486
60415.000000,0.989,-0.015,-0.174,-0.03,0.02,0.02,-40.29,1.96,-25.25,-99.90,-0.81,97.12,0.422,0.571,-0.510,0.486
60425.000000,0.988,-0.016,-0.168,0.03,0.12,-0.06,-40.29,1.96,-25.25,-99.90,-0.81,97.12,0.422,0.571,-0.510,0.486
60435.000000,0.989,-0.015,-0.168,0.03,0.08,0.02,-41.67,0.58,-25.17,-99.90,-0.81,97.12,0.422,0.571,-0.510,0.486
60445.000000,0.990,-0.013,-0.174,0.01,0.06,0.06,-41.71,0.73,-24.92,-99.90,-0.81,97.12,0.422,0.571,-0.510,0.486
60455.000000,0.989,-0.012,-0.174,0.11,0.04,-0.02,-41.48,0.67,-25.21,-99.90,-0.81,97.12,0.422,0.571,-0.510,0.486
60465.000000,0.993,-0.013,-0.171,0.01,-0.02,0.06,-41.93,1.00,-25.21,-99.90,-0.81,97.12,0.422,0.571,-0.510,0.486
60475.000000,0.988,-0.015,-0.171,0.01,0.02,-0.02,-41.93,1.00,-25.21,-99.90,-0.81,97.12,0.422,0.571,-0.510,0.486
60485.000000,0.988,-0.013,-0.172,0.11,0.06,-0.04,-41.58,0.81,-25.17,-99.90,-0.81,97.12,0.422,0.571,-0.510,0.486
60495.000000,0.990,-0.015,-0.174,0.01,0.04,-0.08,-41.02,0.81,-25.00,-99.90,-0.81,97.12,0.422,0.571,-0.510,0.486
60505.000000,0.990,-0.012,-0.172,0.05,0.02,-0.02,-41.29,0.81,-25.04,-99.90,-0.81,97.12,0.422,0.571,-0.510,0.486
60515.000000,0.990,-0.012,-0.175,0.07,0.08,-0.04,-40.88,0.73,-25.04,-99.90,-0.81,97.12,0.422,0.571,-0.510,0.486
60525.000000,0.989,-0.015,-0.175,-0.11,0.06,0.02,-40.88,0.73,-25.04,-99.90,-0.81,97.12,0.422,0.571,-0.510,0.486
60535.000000,0.988,-0.011,-0.171,-0.03,0.12,0.02,-41.25,0.81,-25.13,-99.90,-0.81,97.12,0.422,0.571,-0.510,0.486
60545.000000,0.989,-0.016,-0.170,0.15,-0.02,0.04,-41.02,0.85,-25.17,-99.90,-0.81,97.12,0.422,0.571,-0.510,0.486
60555.000000,0.989,-0.016,-0.171,0.05,0.02,-0.10,-41.29,0.85,-25.29,-99.90,-0.81,97.12,0.422,0.571,-0.510,0.486
60565.000000,0.988,-0.015,-0.172,0.03,0.08,-0.04,-40.93,0.77,-25.25,-99.90,-0.81,97.12,0.422,0.571,-0.510,0.486
60575.000000,0.989,-0.013,-0.171,0.03,0.08,-0.00,-40.93,0.77,-25.25,-99.90,-0.81,97.12,0.422,0.571,-0.510,0.486
60585.000000,0.990,-0.013,-0.172,-0.07,0.08,-0.04,-41.29,0.85,-24.92,-99.90,-0.81,97.12,0.422,0.571,-0.510,0.486
60595.000000,0.989,-0.012,-0.171,-0.05,0.18,-0.08,-41.35,0.85,-25.50,-99.90,-0.81,97.12,0.422,0.571,-0.510,0.486
60605.000000,0.988,-0.016,-0.174,-0.07,0.02,-0.00,-41.35,0.85,-25.50,-99.90,-0.81,97.12,0.422,0.571,-0.510,0.486
60615.000000,0.989,-0.013,-0.174,0.03,0.06,-0.04,-41.35,0.85,-25.50,-99.90,-0.81,97.12,0.422,0.571,-0.510,0.486
60625.000000,0.988,-0.015,-0.176,0.05,0.08,-0.00,-41.35,0.85,-25.50,-99.90,-0.81,97.12,0.422,0.571,-0.510,0.486
60635.000000,0.990,-0.012,-0.172,-0.01,0.10,-0.04,-40.79,1.35,-25.38,-99.90,-0.81,97.12,0.422,0.571,-0.510,0.486
60645.000000,0.988,-0.013,-0.168,0.01,0.02,-0.10,-40.79,1.35,-25.38,-99.90,-0.81,97.12,0.422,0.571,-0.510,0.486
60655.000000,0.988,-0.015,-0.171,0.01,0.08,-0.04,-40.93,1.50,-25.13,-99.90,-0.81,97.12,0.422,0.571,-0.510,0.486
60665.000000,0.989,-0.013,-0.176,-0.05,0.29,0.04,-40.79,1.04,-25.17,-99.90,-0.81,97.12,0.422,0.571,-0.510,0.486
60675.000000,0.988,-0.012,-0.176,0.09,0.02,0.02,-41.06,1.04,-24.83,-99.90,-0.81,97.12,0.422,0.571,-0.510,0.486
60685.000000,0.986,-0.013,-0.172,-0.03,-0.02,-0.04,-41.43,0.89,-25.50,-99.90,-0.81,97.12,0.422,0.571,-0.510,0.486
60695.000000,0.993,-0.015,-0.172,0.07,0.12,0.02,-41.29,0.27,-25.29,-99.90,-0.81,97.11,0.422,0.571,-0.510,0.486
60705.000000,0.989,-0.015,-0.174,0.07,0.14,-0.02,-41.81,0.77,-25.25,-99.90,-0.81,97.12,0.422,0.571,-0.510,0.486
60715.000000,0.990,-0.010,-0.172,-0.03,0.00,0.06,-41.58,0.54,-25.67,-99.90,-0.81,97.12,0.422,0.571,-0.510,0.486
60725.000000,0.990,-0.013,-0.170,0.05,0.10,-0.02,-41.52,0.73,-25.00,-99.90,-0.81,97.12,0.422,0.571,-0.510,0.486
60735.000000,0.989,-0.015,-0.174,-0.07,0.08,-0.02,-40.64,0.43,-25.33,-99.90,-0.81,97.12,0.422,0.571,-0.510,0.486
60745.000000,0.990,-0.016,-0.174,-0.01,0.16,-0.08,-41.02,0.81,-25.33,-99.90,-0.81,97.11,0.422,0.571,-0.510,0.486
60755.000000,0.989,-0.015,-0.175,0.03,0.08,-0.00,-40.79,1.18,-25.29,-99.90,-0.81,97.11,0.422,0.571,-0.510,0.486
60765.000000,0.985,-0.015,-0.171,0.03,0.06,0.06,-40.48,0.85,-25.17,-99.90,-0.81,97.11,0.422,0.571,-0.510,0.486
60775.000000,0.986,-0.016,-0.174,-0.05,0.14,-0.06,-40.75,1.00,-25.21,-99.90,-0.81,97.11,0.422,0.571,-0.510,0.486
60785.000000,0.989,-0.015,-0.170,-0.07,0.00,0.04,-41.39,0.89,-25.54,-99.90,-0.81,97.11,0.422,0.571,-0.510,0.486
60795.000000,0.988,-0.015,-0.171,0.07,0.06,-0.15,-41.85,1.18,-25.46,-99.90,-0.81,97.11,0.422,0.571,-0.510,0.486
60805.000000,0.990,-0.016,-0.177,0.05,0.04,-0.06,-41.63,1.27,-25.38,-99.90,-0.81,97.11,0.422,0.571,-0.510,0.486
60815.000000,0.990,-0.016,-0.172,0.01,0.18,0.08,-41.39,0.96,-25.21,-99.90,-0.81,97.11,0.422,0.571,-0.510,0.486
60825.000000,0.989,-0.013,-0.171,0.05,0.06,0.04,-41.81,0.77,-25.21,-99.90,-0.81,97.11,0.422,0.571,-0.510,0.486
60835.000000,0.990,-0.016,-0.172,0.01,0.04,-0.10,-41.13,0.17,-25.38,-99.90,-0.81,97.11,0.422,0.571,-0.510,0.486
60845.000000,0.992,-0.016,-0.175,0.05,-0.04,-0.04,-41.06,0.35,-25.42,-99.90,-0.81,97.11,0.422,0.571,-0.510,0.486
60855.000000,0.988,-0.016,-0.167,0.01,0.04,0.04,-41.02,-0.08,-25.46,-99.90,-0.81,97.11,0.422,0.571,-0.510,0.486
60865.000000,0.990,-0.012,-0.172,0.09,0.04,-0.06,-41.29,0.50,-25.42,-99.90,-0.81,97.11,0.422,0.571,-0.510,0.486
60875.000000,0.992,-0.016,-0.175,0.03,0.06,0.04,-40.88,0.21,-25.75,-99.90,-0.81,97.11,0.422,0.571,-0.510,0.486
60885.000000,0.986,-0.011,-0.171,0.11,0.08,-0.02,-40.64,0.08,-25.04,-99.90,-0.81,97.11,0.422,0.571,-0.510,0.486
60895.000000,0.988,-0.017,-0.171,-0.03,0.06,-0.04,-40.38,0.00,-25.29,-99.90,-0.81,97.11,0.422,0.571,-0.510,0.486
60905.000000,0.990,-0.012,-0.174,0.03,0.10,-0.02,-40.64,0.35,-25.17,-99.90,-0.81,97.11,0.422,0.571,-0.510,0.486
60915.000000,0.992,-0.015,-0.174,-0.05,-0.06,-0.08,-40.64,0.35,-25.33,-99.90,-0.81,97.11,0.422,0.571,-0.510,0.486
60925.000000,0.988,-0.015,-0.168,-0.05,0.08,-0.06,-40.52,0.17,-25.42,-99.90,-0.81,97.11,0.422,0.571,-0.510,0.486
60935.000000,0.990,-0.013,-0.175,0.03,0.02,-0.00,-40.48,1.04,-25.38,-99.90,-0.81,97.11,0.422,0.571,-0.510,0.486
60945.000000,0.985,-0.013,-0.170,0.01,0.02,-0.08,-41.02,1.04,-25.29,-99.90,-0.81,97.11,0.422,0.571,-0.510,0.486
60955.000000,0.988,-0.012,-0.175,0.05,0.08,0.04,-40.93,1.50,-25.29,-99.90,-0.81,97.11,0.422,0.571,-0.510,0.486
60965.000000,0.988,-0.015,-0.174,0.01,0.08,0.06,-40.98,1.13,-25.25,-99.90,-0.81,97.11,0.422,0.571,-0.510,0.486
60975.000000,0.990,-0.013,-0.172,0.03,-0.02,-0.00,-40.88,1.13,-25.38,-99.90,-0.81,97.11,0.422,0.571,-0.510,0.486
60985.000000,0.989,-0.013,-0.172,0.05,-0.04,0.04,-41.58,1.92,-25.29,-99.90,-0.81,97.11,0.422,0.571,-0.510,0.486
60995.000000,0.988,-0.015,-0.172,0.11,-0.04,-0.02,-41.75,1.77,-25.25,-99.90,-0.81,97.11,0.422,0.571,-0.510,0.486
61005.000000,0.988,-0.013,-0.170,0.03,0.08,-0.08,-41.89,1.92,-25.25,-99.90,-0.81,97.11,0.422,0.571,-0.510,0.486
61015.000000,0.989,-0.013,-0.170,0.05,0.06,0.02,-41.71,1.64,-25.29,-99.90,-0.81,97.11,0.422,0.571,-0.510,0.486
61025.000000,0.990,-0.015,-0.170,0.01,0.10,0.10,-41.67,1.50,-25.33,-99.90,-0.81,97.12,0.422,0.571,-0.510,0.486
61035.000000,0.988,-0.015,-0.170,0.13,0.00,-0.00,-41.43,0.58,-25.38,-99.90,-0.81,97.12,0.422,0.571,-0.510,0.486
61045.000000,0.986,-0.016,-0.170,0.11,0.16,-0.02,-41.29,0.73,-24.83,-99.90,-0.81,97.12,0.422,0.571,-0.510,0.486
61055.000000,0.988,-0.015,-0.175,0.05,0.12,-0.04,-41.89,0.63,-25.00,-99.90,-0.81,97.12,0.422,0.571,-0.510,0.486
61065.000000,0.990,-0.012,-0.174,-0.03,0.04,-0.00,-41.21,0.77,-24.75,-99.90,-0.81,97.12,0.422,0.571,-0.510,0.486
61075.000000,0.989,-0.013,-0.170,0.01,0.02,-0.02,-41.63,0.63,-25.08,-99.90,-0.81,97.12,0.422,0.571,-0.510,0.486
61085.000000,0.992,-0.013,-0.172,0.05,0.06,-0.02,-41.06,0.50,-25.21,-99.90,-0.81,97.12,0.422,0.571,-0.510,0.486
61095.000000,0.988,-0.016,-0.172,0.07,0.10,-0.02,-41.71,0.08,-25.33,-99.90,-0.81,97.12,0.422,0.571,-0.510,0.486
61105.000000,0.988,-0.012,-0.171,-0.01,0.04,0.02,-41.25,0.21,-25.13,-99.90,-0.81,97.12,0.422,0.571,-0.510,0.486
61115.000000,0.989,-0.015,-0.172,0.11,0.10,-0.13,-41.52,0.17,-25.50,-99.90,-0.81,97.12,0.422,0.571,-0.510,0.486
61125.000000,0.985,-0.016,-0.176,0.05,0.10,-0.06,-41.81,0.43,-25.04,-99.90,-0.81,97.12,0.422,0.571,-0.510,0.486
61135.000000,0.989,-0.015,-0.171,-0.01,0.04,0.02,-41.63,1.08,-25.42,-99.90,-0.81,97.12,0.422,0.571,-0.510,0.486
61145.000000,0.988,-0.016,-0.172,0.07,-0.06,-0.04,-40.93,1.18,-25.33,-99.90,-0.81,97.12,0.422,0.571,-0.510,0.486
61155.000000,0.989,-0.013,-0.174,0.01,0.08,-0.04,-41.39,1.27,-25.33,-99.90,-0.81,97.12,0.422,0.571,-0.510,0.486
61165.000000,0.988,-0.011,-0.175,0.09,-0.02,-0.08,-41.35,1.04,-25.58,-99.90,-0.81,97.12,0.422,0.571,-0.510,0.486
61175.000000,0.985,-0.015,-0.171,-0.07,0.14,0.02,-40.71,1.08,-25.21,-99.90,-0.81,97.12,0.422,0.571,-0.510,0.486
61185.000000,0.989,-0.013,-0.168,-0.01,0.04,-0.04,-40.52,0.77,-24.92,-99.90,-0.81,97.12,0.422,0.571,-0.510,0.486
61195.000000,0.989,-0.013,-0.172,0.03,0.04,-0.06,-40.64,0.54,-25.17,-99.90,-0.81,97.12,0.422,0.571,-0.510,0.486
61205.000000,0.989,-0.012,-0.174,0.05,0.10,0.02,-40.29,1.23,-25.04,-99.90,-0.81,97.12,0.422,0.571,-0.510,0.486
61215.000000,0.988,-0.013,-0.176,0.03,0.02,0.02,-40.60,0.81,-25.04,-99.90,-0.81,97.12,0.422,0.571,-0.510,0.486
61225.000000,0.988,-0.015,-0.170,0.03,0.14,-0.10,-40.60,0.81,-25.08,-99.90,-0.81,97.12,0.422,0.571,-0.510,0.486
61235.000000,0.988,-0.012,-0.175,-0.03,0.08,0.02,-41.52,1.58,-25.29,-99.90,-0.81,97.12,0.422,0.571,-0.510,0.486
61245.000000,0.990,-0.016,-0.175,0.03,0.10,-0.06,-41.06,1.73,-25.29,-99.90,-0.81,97.12,0.422,0.571,-0.510,0.486
61255.000000,0.988,-0.013,-0.171,-0.03,0.00,-0.06,-41.21,1.81,-25.13,-99.90,-0.81,97.12,0.422,0.571,-0.510,0.486
61265.000000,0.988,-0.015,-0.174,0.01,0.14,-0.06,-41.43,1.31,-25.17,-99.90,-0.81,97.12,0.422,0.571,-0.510,0.486
61275.000000,0.990,-0.013,-0.172,0.01,0.06,-0.02,-41.29,1.64,-25.13,-99.90,-0.81,97.12,0.422,0.571,-0.510,0.486
61285.000000,0.990,-0.012,-0.175,-0.03,0.12,-0.02,-41.67,0.96,-25.50,-99.90,-0.81,97.12,0.422,0.571,-0.510,0.486
61295.000000,0.988,-0.013,-0.168,-0.01,0.10,-0.00,-42.04,0.73,-25.42,-99.90,-0.81,97.12,0.422,0.571,-0.510,0.486
61305.000000,0.990,-0.013,-0.175,0.03,0.02,-0.08,-41.93,0.85,-25.21,-99.90,-0.81,97.12,0.422,0.571,-0.510,0.486
61315.000000,0.986,-0.013,-0.171,0.11,0.12,-0.00,-41.52,1.04,-25.38,-99.90,-0.81,97.12,0.422,0.571,-0.510,0.486
61325.000000,0.986,-0.013,-0.172,0.07,0.10,0.04,-41.71,1.13,-25.42,-99.90,-0.81,97.12,0.422,0.571,-0.510,0.486
61335.000000,0.992,-0.012,-0.172,0.07,-0.08,-0.02,-41.48,1.50,-25.21,-99.89,-0.81,97.12,0.422,0.571,-0.510,0.486
61345.000000,0.990,-0.012,-0.171,0.01,-0.04,-0.08,-41.52,1.64,-25.17,-99.90,-0.81,97.12,0.422,0.571,-0.510,0.486
61355.000000,0.989,-0.015,-0.171,0.07,0.00,0.06,-41.52,1.73,-25.29,-99.90,-0.81,97.12,0.422,0.571,-0.510,0.486
61365.000000,0.990,-0.012,-0.172,0.09,0.04,-0.06,-41.39,1.42,-24.79,-99.90,-0.81,97.12,0.422,0.571,-0.510,0.486
61375.000000,0.989,-0.013,-0.170,0.03,0.14,0.02,-41.67,1.54,-25.04,-99.90,-0.81,97.12,0.422,0.571,-0.510,0.486
61385.000000,0.990,-0.013,-0.172,-0.13,0.00,-0.02,-41.48,1.35,-25.25,-99.90,-0.81,97.12,0.422,0.571,-0.510,0.486
61395.000000,0.985,-0.016,-0.171,-0.03,0.04,0.04,-41.06,1.08,-25.67,-99.90,-0.81,97.12,0.422,0.571,-0.510,0.486
61405.000000,0.990,-0.013,-0.171,-0.01,0.04,-0.15,-41.02,1.00,-25.58,-99.90,-0.81,97.12,0.422,0.571,-0.510,0.486
61415.000000,0.988,-0.012,-0.172,-0.03,0.14,0.02,-41.13,0.89,-25.54,-99.90,-0.81,97.12,0.422,0.571,-0.510,0.486
61425.000000,0.988,-0.011,-0.172,-0.01,-0.02,-0.00,-41.17,1.42,-25.63,-99.90,-0.81,97.12,0.422,0.571,-0.510,0.486
61435.000000,0.989,-0.015,-0.167,0.03,0.06,-0.00,-41.71,1.04,-25.33,-99.90,-0.81,97.12,0.422,0.571,-0.510,0.486
61445.000000,0.989,-0.011,-0.172,-0.01,-0.02,-0.02,-41.67,0.81,-25.04,-99.90,-0.81,97.12,0.422,0.571,-0.510,0.486
61455.000000,0.989,-0.013,-0.171,0.07,0.04,-0.04,-41.89,0.96,-25.21,-99.90,-0.81,97.12,0.422,0.571,-0.510,0.486
61465.000000,0.988,-0.015,-0.172,-0.01,0.12,-0.08,-41.85,0.63,-25.13,-99.90,-0.81,97.12,0.422,0.571,-0.510,0.486
61475.000000,0.989,-0.015,-0.172,-0.05,-0.04,0.02,-41.98,0.85,-25.25,-99.90,-0.81,97.12,0.422,0.571,-0.510,0.486
61485.000000,0.990,-0.015,-0.172,0.13,0.06,0.02,-42.04,0.73,-25.13,-99.90,-0.81,97.12,0.422,0.571,-0.510,0.486
61495.000000,0.988,-0.013,-0.170,0.15,-0.10,0.06,-41.98,0.13,-24.96,-99.90,-0.81,97.12,0.422,0.571,-0.510,0.486
61505.000000,0.989,-0.017,-0.171,0.01,0.02,0.02,-42.21,0.17,-24.83,-99.90,-0.81,97.12,0.422,0.571,-0.510,0.486
61515.000000,0.990,-0.012,-0.174,0.03,0.21,-0.02,-41.71,0.27,-25.38,-99.90,-0.81,97.12,0.422,0.571,-0.510,0.486
61525.000000,0.992,-0.013,-0.168,0.09,0.08,0.02,-42.35,0.50,-24.67,-99.90,-0.81,97.12,0.422,0.571,-0.510,0.486
61535.000000,0.992,-0.015,-0.172,0.07,0.06,-0.02,-41.89,0.89,-25.29,-99.90,-0.81,97.12,0.422,0.571,-0.510,0.486
61545.000000,0.988,-0.016,-0.174,-0.03,0.00,-0.02,-41.43,0.89,-24.92,-99.90,-0.81,97.12,0.422,0.571,-0.510,0.486
61555.000000,0.989,-0.013,-0.172,-0.07,0.06,-0.02,-41.29,1.08,-25.21,-99.90,-0.81,97.12,0.422,0.571,-0.510,0.486
61565.000000,0.988,-0.015,-0.172,0.03,0.02,0.02,-41.17,0.77,-25.13,-99.90,-0.81,97.12,0.422,0.571,-0.510,0.486
61575.000000,0.989,-0.011,-0.170,0.11,-0.04,-0.13,-41.39,0.50,-25.17,-99.90,-0.81,97.12,0.422,0.571,-0.510,0.486
61585.000000,0.990,-0.013,-0.168,0.05,0.16,-0.02,-41.67,0.73,-25.42,-99.90,-0.81,97.12,0.422,0.571,-0.510,0.486
61595.000000,0.989,-0.013,-0.175,0.05,0.08,-0.02,-41.71,0.43,-25.38,-99.90,-0.81,97.12,0.422,0.571,-0.510,0.486
61605.000000,0.989,-0.015,-0.170,0.03,-0.02,0.02,-41.52,0.13,-25.33,-99.90,-0.81,97.12,0.422,0.571,-0.510,0.486
61615.000000,0.990,-0.016,-0.175,0.01,0.06,-0.00,-41.52,0.17,-25.83,-99.90,-0.81,97.12,0.422,0.571,-0.510,0.486
61625.000000,0.992,-0.016,-0.172,0.07,0.10,0.04,-41.48,0.21,-25.58,-99.90,-0.81,97.12,0.422,0.571,-0.510,0.486
61635.000000,0.989,-0.015,-0.171,-0.01,0.00,-0.00,-41.85,0.63,-25.21,-99.90,-0.81,97.12,0.422,0.571,-0.510,0.486
61645.000000,0.988,-0.017,-0.174,0.03,0.04,-0.08,-41.75,1.18,-25.25,-99.90,-0.81,97.12,0.422,0.571,-0.510,0.486
61655.000000,0.992,-0.015,-0.171,0.07,0.08,-0.04,-41.85,0.85,-25.29,-99.90,-0.81,97.12,0.422,0.571,-0.510,0.486
61665.000000,0.990,-0.013,-0.174,0.05,-0.06,0.04,-41.75,0.85,-25.79,-99.90,-0.81,97.12,0.422,0.571,-0.510,0.486
61675.000000,0.990,-0.015,-0.174,0.03,0.08,0.02,-41.52,0.81,-25.46,-99.90,-0.81,97.12,0.422,0.571,-0.510,0.486
61685.000000,0.989,-0.012,-0.174,-0.05,0.04,0.02,-41.25,1.13,-25.38,-99.90,-0.81,97.12,0.422,0.571,-0.510,0.486
61695.000000,0.990,-0.015,-0.172,-0.01,0.02,0.02,-41.06,1.31,-25.25,-99.90,-0.81,97.12,0.422,0.571,-0.510,0.486
61705.000000,0.989,-0.013,-0.171,-0.01,0.04,-0.02,-41.58,1.18,-25.33,-99.90,-0.81,97.12,0.422,0.571,-0.510,0.486
61715.000000,0.988,-0.012,-0.174,0.07,0.12,-0.08,-41.17,1.04,-25.25,-99.90,-0.81,97.12,0.422,0.571,-0.510,0.486
61725.000000,0.990,-0.012,-0.171,-0.07,0.10,-0.06,-41.43,1.13,-25.17,-99.90,-0.81,97.12,0.422,0.571,-0.510,0.486
61735.000000,0.990,-0.015,-0.176,0.09,0.00,-0.08,-41.58,0.17,-25.46,-99.90,-0.81,97.12,0.422,0.571,-0.510,0.486
61745.000000,0.990,-0.013,-0.174,0.05,0.12,0.04,-41.29,0.00,-25.79,-99.90,-0.81,97.12,0.422,0.571,-0.510,0.486
61755.000000,0.988,-0.015,-0.172,0.01,-0.04,-0.02,-41.71,-0.08,-25.46,-99.90,-0.81,97.12,0.422,0.571,-0.510,0.486
61765.000000,0.988,-0.012,-0.174,-0.03,0.14,0.02,-41.52,-0.35,-25.17,-99.90,-0.81,97.12,0.422,0.571,-0.510,0.486
61775.000000,0.990,-0.016,-0.174,0.05,0.12,-0.02,-41.25,-0.04,-25.46,-99.90,-0.81,97.12,0.422,0.571,-0.510,0.486
61785.000000,0.989,-0.013,-0.172,0.07,0.10,-0.00,-40.83,0.85,-25.38,-99.90,-0.81,97.12,0.422,0.571,-0.510,0.486
61795.000000,0.988,-0.015,-0.168,-0.03,0.06,0.02,-40.48,0.67,-25.50,-99.90,-0.81,97.12,0.422,0.571,-0.510,0.486
61805.000000,0.989,-0.015,-0.171,0.05,0.02,-0.02,-40.64,0.35,-25.08,-99.90,-0.81,97.12,0.422,0.571,-0.510,0.486
61815.000000,0.990,-0.013,-0.175,0.03,0.06,-0.12,-40.71,0.67,-25.21,-99.90,-0.81,97.12,0.422,0.571,-0.510,0.486
61825.000000,0.988,-0.012,-0.176,-0.01,0.00,-0.00,-40.75,0.81,-25.00,-99.90,-0.81,97.12,0.422,0.571,-0.510,0.486
61835.000000,0.985,-0.015,-0.172,0.05,-0.02,-0.02,-41.58,-0.04,-25.29,-99.90,-0.81,97.12,0.422,0.571,-0.510,0.486
61845.000000,0.988,-0.012,-0.175,0.05,0.06,-0.02,-41.39,0.13,-25.29,-99.90,-0.81,97.12,0.422,0.571,-0.510,0.486
61855.000000,0.986,-0.016,-0.175,0.03,0.06,-0.04,-41.29,-0.04,-25.29,-99.90,-0.81,97.12,0.422,0.571,-0.510,0.486
61865.000000,0.990,-0.013,-0.175,0.11,0.14,-0.06,-41.35,0.17,-25.63,-99.90,-0.81,97.12,0.422,0.571,-0.510,0.486
61875.000000,0.990,-0.012,-0.172,-0.05,0.06,-0.00,-41.58,0.21,-25.58,-99.90,-0.81,97.12,0.422,0.571,-0.510,0.486
61885.000000,0.989,-0.013,-0.174,-0.01,0.06,0.02,-41.06,0.96,-25.21,-99.90,-0.81,97.12,0.422,0.571,-0.510,0.486
61895.000000,0.989,-0.013,-0.171,-0.01,0.21,0.04,-40.88,0.27,-25.58,-99.90,-0.81,97.12,0.422,0.571,-0.510,0.486
61905.000000,0.985,-0.011,-0.174,0.07,0.06,-0.15,-40.83,0.50,-25.58,-99.90,-0.81,97.12,0.422,0.571,-0.510,0.486
61915.000000,0.989,-0.015,-0.172,0.03,-0.04,-0.10,-40.33,0.50,-25.46,-99.90,-0.81,97.12,0.422,0.571,-0.510,0.486
61925.000000,0.988,-0.013,-0.171,-0.05,0.02,0.04,-40.56,0.73,-25.08,-99.90,-0.81,97.12,0.422,0.571,-0.510,0.486
61935.000000,0.986,-0.012,-0.172,0.03,0.04,-0.02,-40.64,0.85,-25.08,-99.90,-0.81,97.12,0.422,0.571,-0.510,0.486
61945.000000,0.989,-0.015,-0.175,-0.03,0.10,-0.04,-40.52,0.63,-25.25,-99.90,-0.81,97.12,0.422,0.571,-0.510,0.486
61955.000000,0.989,-0.013,-0.174,0.03,0.04,-0.04,-40.52,0.50,-25.00,-99.90,-0.81,97.12,0.422,0.571,-0.510,0.486
61965.000000,0.986,-0.013,-0.171,0.05,0.16,-0.12,-40.06,0.77,-25.25,-99.90,-0.81,97.12,0.422,0.571,-0.510,0.486
61975.000000,0.989,-0.015,-0.172,0.01,0.04,-0.00,-40.52,0.27,-25.42,-99.90,-0.81,97.12,0.422,0.571,-0.510,0.486
61985.000000,0.985,-0.015,-0.174,0.11,0.14,0.04,-40.42,0.13,-25.08,-99.90,-0.81,97.12,0.422,0.571,-0.510,0.486
61995.000000,0.986,-0.016,-0.171,-0.01,-0.02,0.02,-40.29,0.08,-24.96,-99.90,-0.81,97.12,0.422,0.571,-0.510,0.486
62005.000000,0.993,-0.013,-0.171,-0.01,0.04,-0.02,-40.42,0.04,-25.50,-99.90,-0.81,97.12,0.422,0.571,-0.510,0.486
62015.000000,0.989,-0.013,-0.172,0.01,0.02,-0.08,-40.79,0.08,-25.54,-99.90,-0.81,97.12,0.422,0.571,-0.510,0.486
62025.000000,0.992,-0.017,-0.172,0.07,-0.04,-0.02,-40.25,-0.08,-25.25,-99.90,-0.81,97.12,0.422,0.571,-0.510,0.486
62035.000000,0.989,-0.013,-0.172,0.07,0.10,0.04,-41.48,0.04,-25.38,-99.90,-0.81,97.12,0.422,0.571,-0.510,0.486
62045.000000,0.989,-0.013,-0.171,0.01,0.02,-0.02,-41.63,-0.50,-25.42,-99.90,-0.81,97.12,0.422,0.571,-0.510,0.486
62055.000000,0.992,-0.013,-0.170,-0.03,0.02,-0.02,-41.39,0.00,-25.21,-99.90,-0.81,97.12,0.422,0.571,-0.510,0.486
62065.000000,0.986,-0.016,-0.172,-0.03,0.00,0.06,-41.81,0.08,-25.50,-99.90,-0.81,97.12,0.422,0.571,-0.510,0.486
62075.000000,0.990,-0.015,-0.170,0.03,0.06,-0.04,-41.52,-0.13,-25.42,-99.90,-0.81,97.12,0.422,0.571,-0.510,0.486
62085.000000,0.989,-0.012,-0.172,-0.01,-0.06,-0.06,-40.93,0.13,-25.17,-99.90,-0.81,97.12,0.422,0.571,-0.510,0.486
62095.000000,0.988,-0.013,-0.171,0.03,0.00,-0.08,-41.02,0.13,-25.38,-99.90,-0.81,97.12,0.422,0.571,-0.510,0.486
62105.000000,0.988,-0.016,-0.172,0.07,0.12,-0.00,-40.64,0.21,-25.33,-99.90,-0.81,97.12,0.422,0.571,-0.510,0.486
62115.000000,0.992,-0.013,-0.171,0.05,0.06,-0.08,-40.52,0.31,-25.08,-99.90,-0.81,97.12,0.422,0.571,-0.510,0.486
62125.000000,0.990,-0.015,-0.174,0.01,0.00,-0.02,-40.56,0.21,-25.58,-99.90,-0.81,97.12,0.422,0.571,-0.510,0.486
62135.000000,0.988,-0.013,-0.174,-0.01,0.00,-0.04,-40.56,0.21,-25.58,-99.90,-0.81,97.12,0.422,0.571,-0.510,0.486
62145.000000,0.989,-0.015,-0.174,0.09,0.12,-0.02,-42.04,0.58,-25.33,-99.91,-0.81,97.12,0.422,0.571,-0.510,0.486
62155.000000,0.989,-0.015,-0.174,0.03,-0.06,-0.00,-42.08,0.77,-25.25,-99.90,-0.81,97.12,0.422,0.571,-0.510,0.486
62165.000000,0.989,-0.015,-0.172,-0.03,0.08,-0.06,-41.89,0.81,-25.13,-99.91,-0.81,97.12,0.422,0.571,-0.510,0.486
62175.000000,0.988,-0.013,-0.172,0.09,0.14,-0.04,-42.17,0.50,-25.04,-99.91,-0.81,97.12,0.422,0.571,-0.510,0.486
62185.000000,0.992,-0.015,-0.174,-0.01,0.02,-0.08,-42.17,0.50,-25.04,-99.90,-0.81,97.12,0.422,0.571,-0.510,0.486
62195.000000,0.989,-0.013,-0.176,0.07,0.04,0.06,-41.75,0.17,-25.83,-99.90,-0.81,97.12,0.422,0.571,-0.510,0.486
62205.000000,0.989,-0.012,-0.171,0.03,0.04,-0.04,-41.35,0.13,-25.58,-99.90,-0.81,97.12,0.422,0.571,-0.510,0.486
62215.000000,0.989,-0.013,-0.172,-0.03,0.04,-0.04,-41.13,-0.08,-25.46,-99.91,-0.81,97.12,0.422,0.571,-0.510,0.486
62225.000000,0.989,-0.015,-0.175,0.11,0.06,-0.04,-41.52,0.00,-25.29,-99.90,-0.81,97.12,0.422,0.571,-0.510,0.486
62235.000000,0.988,-0.015,-0.172,0.09,0.04,-0.02,-41.52,0.00,-25.29,-99.91,-0.81,97.12,0.422,0.571,-0.510,0.486
62245.000000,0.988,-0.013,-0.170,0.07,0.08,0.04,-40.71,0.58,-25.25,-99.91,-0.81,97.12,0.422,0.571,-0.510,0.486
62255.000000,0.986,-0.012,-0.175,0.05,0.14,-0.06,-40.42,0.27,-25.42,-99.90,-0.81,97.12,0.422,0.571,-0.510,0.486
62265.000000,0.989,-0.013,-0.170,0.05,0.12,0.08,-40.75,0.85,-24.96,-99.90,-0.81,97.12,0.422,0.571,-0.510,0.486
62275.000000,0.990,-0.015,-0.172,0.01,-0.08,-0.06,-40.93,0.50,-25.04,-99.90,-0.81,97.12,0.422,0.571,-0.510,0.486
62285.000000,0.989,-0.015,-0.174,0.05,0.27,0.08,-40.93,0.50,-25.04,-99.90,-0.81,97.12,0.422,0.571,-0.510,0.486
62295.000000,0.989,-0.015,-0.172,0.05,0.08,-0.06,-42.17,0.58,-25.33,-99.90,-0.81,97.12,0.422,0.571,-0.510,0.486
62305.000000,0.989,-0.012,-0.174,-0.03,0.04,-0.04,-41.75,0.81,-25.13,-99.90,-0.81,97.12,0.422,0.571,-0.510,0.486
62315.000000,0.989,-0.013,-0.176,-0.01,-0.02,-0.06,-42.50,1.23,-25.25,-99.90,-0.81,97.12,0.422,0.571,-0.510,0.486
62325.000000,0.988,-0.013,-0.171,-0.03,0.00,-0.02,-41.93,0.39,-25.42,-99.90,-0.81,97.12,0.422,0.571,-0.510,0.486
62335.000000,0.988,-0.015,-0.175,0.13,0.14,0.02,-41.93,0.39,-25.42,-99.90,-0.81,97.12,0.422,0.571,-0.510,0.486
62345.000000,0.989,-0.015,-0.174,0.07,0.04,-0.06,-40.75,1.42,-25.21,-99.90,-0.81,97.12,0.422,0.571,-0.510,0.486
62355.000000,0.989,-0.015,-0.172,0.03,0.08,-0.04,-41.06,1.35,-25.42,-99.90,-0.81,97.12,0.422,0.571,-0.510,0.486
62365.000000,0.990,-0.012,-0.174,0.09,0.02,-0.02,-40.71,1.00,-25.54,-99.90,-0.81,97.12,0.422,0.571,-0.510,0.486
62375.000000,0.989,-0.013,-0.174,0.03,0.02,-0.02,-40.79,1.18,-25.63,-99.90,-0.81,97.12,0.422,0.571,-0.510,0.486
62385.000000,0.988,-0.015,-0.171,-0.07,0.10,-0.02,-40.79,1.18,-25.63,-99.90,-0.81,97.12,0.422,0.571,-0.510,0.486
62395.000000,0.992,-0.012,-0.172,-0.01,0.04,-0.04,-40.93,0.81,-24.79,-99.90,-0.81,97.12,0.422,0.571,-0.510,0.486
62405.000000,0.989,-0.015,-0.172,0.07,-0.02,-0.00,-40.98,1.31,-25.17,-99.90,-0.81,97.12,0.422,0.571,-0.510,0.486
62415.000000,0.989,-0.013,-0.171,0.09,0.02,-0.00,-41.17,0.96,-24.96,-99.90,-0.80,97.12,0.422,0.571,-0.510,0.486
62425.000000,0.989,-0.015,-0.171,0.05,0.14,-0.04,-41.06,1.35,-24.96,-99.90,-0.81,97.12,0.422,0.571,-0.510,0.486
62435.000000,0.988,-0.013,-0.175,0.13,0.06,-0.02,-41.06,1.35,-24.96,-99.90,-0.80,97.12,0.422,0.571,-0.510,0.486
62445.000000,0.990,-0.015,-0.172,0.11,-0.02,-0.00,-41.58,1.27,-25.04,-99.90,-0.80,97.12,0.422,0.571,-0.510,0.486
62455.000000,0.990,-0.015,-0.172,-0.07,-0.02,-0.04,-41.39,0.81,-24.96,-99.90,-0.81,97.12,0.422,0.571,-0.510,0.486
62465.000000,0.989,-0.015,-0.174,0.09,0.02,0.04,-41.58,0.81,-25.46,-99.90,-0.80,97.12,0.422,0.571,-0.510,0.486
62475.000000,0.990,-0.013,-0.172,-0.03,0.14,0.12,-41.67,0.85,-25.17,-99.90,-0.81,97.12,0.422,0.571,-0.510,0.486
62485.000000,0.988,-0.012,-0.171,-0.03,0.02,-0.06,-41.67,0.85,-25.17,-99.90,-0.81,97.12,0.422,0.571,-0.510,0.486
62495.000000,0.988,-0.016,-0.172,0.07,-0.02,-0.08,-41.13,0.35,-25.21,-99.90,-0.81,97.12,0.422,0.571,-0.510,0.486
62505.000000,0.986,-0.015,-0.172,0.03,0.00,-0.08,-41.17,0.35,-25.21,-99.90,-0.81,97.12,0.422,0.571,-0.510,0.486
62515.000000,0.986,-0.016,-0.172,0.05,0.12,-0.04,-41.17,0.35,-25.21,-99.90,-0.80,97.12,0.422,0.571,-0.510,0.486
62525.000000,0.988,-0.013,-0.174,-0.01,0.08,0.02,-41.17,0.35,-25.21,-99.90,-0.80,97.12,0.422,0.571,-0.510,0.486
62535.000000,0.988,-0.015,-0.172,0.13,0.08,0.02,-41.17,0.35,-25.21,-99.90,-0.80,97.12,0.422,0.571,-0.510,0.486
62545.000000,0.989,-0.011,-0.174,-0.01,0.10,-0.00,-41.06,1.04,-25.17,-99.90,-0.80,97.12,0.422,0.571,-0.510,0.486
62555.000000,0.990,-0.013,-0.174,0.03,0.14,-0.04,-41.06,1.04,-25.17,-99.90,-0.81,97.12,0.422,0.571,-0.510,0.486
62565.000000,0.988,-0.015,-0.172,0.17,0.04,-0.04,-40.60,1.08,-25.08,-99.90,-0.80,97.12,0.422,0.571,-0.510,0.486
62575.000000,0.989,-0.012,-0.176,0.01,-0.04,0.02,-40.88,0.96,-25.33,-99.90,-0.80,97.12,0.422,0.571,-0.510,0.486
62585.000000,0.986,-0.012,-0.174,0.01,0.00,-0.02,-40.71,1.27,-25.33,-99.90,-0.81,97.12,0.422,0.571,-0.510,0.486
62595.000000,0.986,-0.015,-0.170,0.17,0.08,-0.04,-40.38,1.46,-25.38,-99.90,-0.81,97.12,0.422,0.571,-0.510,0.486
62605.000000,0.992,-0.012,-0.172,-0.03,-0.04,-0.10,-40.18,1.31,-25.13,-99.90,-0.81,97.13,0.422,0.571,-0.510,0.486
62615.000000,0.989,-0.013,-0.174,0.05,0.00,-0.02,-40.64,1.13,-25.29,-99.90,-0.80,97.13,0.422,0.571,-0.510,0.486
62625.000000,0.992,-0.015,-0.171,0.07,0.16,0.04,-40.38,1.58,-25.00,-99.91,-0.80,97.13,0.422,0.571,-0.510,0.486
62635.000000,0.990,-0.015,-0.168,0.03,0.10,-0.08,-40.38,1.73,-25.00,-99.90,-0.80,97.13,0.422,0.571,-0.510,0.486
62645.000000,0.993,-0.016,-0.174,0.07,-0.04,-0.02,-40.06,1.46,-25.46,-99.90,-0.80,97.13,0.422,0.571,-0.510,0.486
62655.000000,0.989,-0.013,-0.175,0.09,0.02,0.02,-40.18,1.54,-25.17,-99.90,-0.80,97.13,0.422,0.571,-0.510,0.486
62665.000000,0.989,-0.013,-0.172,0.05,0.00,-0.00,-39.79,1.23,-25.13,-99.90,-0.81,97.13,0.422,0.571,-0.510,0.486
62676.000000,0.988,-0.013,-0.172,0.01,0.10,-0.08,-40.25,1.50,-25.42,-99.90,-0.81,97.13,0.422,0.571,-0.510,0.486
62686.000000,0.989,-0.013,-0.168,0.01,-0.06,0.04,-40.38,1.73,-25.38,-99.90,-0.80,97.13,0.422,0.571,-0.510,0.486
62696.000000,0.989,-0.016,-0.174,0.03,0.12,-0.12,-41.52,1.27,-25.38,-99.91,-0.80,97.13,0.422,0.571,-0.510,0.486
62706.000000,0.988,-0.015,-0.174,0.01,0.00,-0.04,-41.06,1.50,-25.54,-99.91,-0.80,97.13,0.422,0.571,-0.510,0.486
62716.000000,0.988,-0.015,-0.171,0.01,0.06,-0.02,-41.21,1.46,-25.25,-99.91,-0.80,97.13,0.422,0.571,-0.510,0.486
62726.000000,0.992,-0.013,-0.171,0.03,0.14,-0.04,-41.17,1.23,-25.00,-99.91,-0.80,97.13,0.422,0.571,-0.510,0.486
62736.000000,0.989,-0.012,-0.172,-0.03,0.10,-0.04,-41.29,1.13,-25.54,-99.91,-0.80,97.13,0.422,0.571,-0.510,0.486
62746.000000,0.988,-0.016,-0.174,0.05,0.10,0.02,-41.17,0.96,-25.25,-99.91,-0.80,97.13,0.422,0.571,-0.510,0.486
62756.000000,0.990,-0.015,-0.172,-0.01,-0.02,-0.04,-41.02,0.85,-25.33,-99.91,-0.80,97.13,0.422,0.571,-0.510,0.486
62766.000000,0.989,-0.012,-0.172,0.07,0.02,0.08,-41.21,0.85,-25.17,-99.91,-0.80,97.13,0.422,0.571,-0.510,0.486
62776.000000,0.992,-0.011,-0.171,0.01,0.10,0.02,-41.02,0.81,-25.13,-99.91,-0.80,97.13,0.422,0.571,-0.510,0.486
62786.000000,0.989,-0.015,-0.172,0.05,0.06,-0.04,-41.75,0.77,-25.13,-99.91,-0.80,97.13,0.422,0.571,-0.510,0.486
62796.000000,0.989,-0.013,-0.172,0.01,0.00,0.06,-41.93,1.04,-25.38,-99.91,-0.80,97.13,0.422,0.571,-0.510,0.486
62806.000000,0.988,-0.016,-0.170,0.05,0.14,-0.04,-41.75,0.77,-25.13,-99.91,-0.80,97.13,0.422,0.571,-0.510,0.486
62816.000000,0.986,-0.016,-0.174,-0.01,0.00,-0.00,-41.81,0.73,-25.13,-99.91,-0.80,97.13,0.422,0.571,-0.510,0.486
62826.000000,0.989,-0.012,-0.175,-0.03,0.06,-0.02,-41.98,0.85,-25.38,-99.91,-0.80,97.13,0.422,0.571,-0.510,0.486
62836.000000,0.988,-0.016,-0.171,-0.01,0.06,-0.02,-41.63,0.85,-25.58,-99.91,-0.80,97.13,0.422,0.571,-0.510,0.486
62846.000000,0.989,-0.015,-0.174,0.01,0.10,-0.06,-42.54,1.81,-25.29,-99.91,-0.80,97.13,0.422,0.571,-0.510,0.486
62856.000000,0.988,-0.016,-0.168,-0.01,0.02,-0.04,-42.58,2.04,-25.25,-99.91,-0.80,97.13,0.422,0.571,-0.510,0.486
62866.000000,0.989,-0.015,-0.172,-0.01,0.02,-0.08,-42.35,1.73,-25.13,-99.91,-0.80,97.13,0.422,0.571,-0.510,0.486
62876.000000,0.988,-0.013,-0.174,0.05,0.10,-0.00,-42.39,1.77,-25.17,-99.91,-0.80,97.12,0.422,0.571,-0.510,0.486
62886.000000,0.989,-0.013,-0.168,0.07,0.04,0.06,-42.35,1.96,-25.29,-99.91,-0.80,97.13,0.422,0.571,-0.510,0.486
62896.000000,0.986,-0.015,-0.174,0.11,-0.10,-0.09,-41.52,1.88,-25.38,-99.91,-0.80,97.13,0.422,0.571,-0.510,0.486
62906.000000,0.989,-0.019,-0.175,0.01,-0.02,-0.04,-41.75,1.73,-25.38,-99.91,-0.80,97.13,0.422,0.571,-0.510,0.486
62916.000000,0.986,-0.012,-0.171,0.03,0.00,-0.08,-41.67,1.96,-25.54,-99.91,-0.80,97.13,0.422,0.571,-0.510,0.486
62926.000000,0.989,-0.013,-0.175,-0.03,0.21,-0.00,-41.63,1.73,-25.33,-99.91,-0.80,97.13,0.422,0.571,-0.510,0.486
62936.000000,0.989,-0.015,-0.172,0.09,-0.10,-0.11,-41.75,1.96,-25.33,-99.91,-0.80,97.13,0.422,0.571,-0.510,0.486
62946.000000,0.989,-0.016,-0.172,0.05,0.25,-0.00,-42.21,1.00,-25.25,-99.91,-0.80,97.13,0.422,0.571,-0.510,0.486
62956.000000,0.990,-0.016,-0.172,0.01,0.10,0.02,-42.35,0.63,-25.25,-99.91,-0.80,97.13,0.422,0.571,-0.510,0.486
62966.000000,0.989,-0.012,-0.172,-0.01,0.10,-0.14,-42.39,0.81,-25.13,-99.91,-0.80,97.13,0.422,0.571,-0.510,0.486
62976.000000,0.990,-0.013,-0.172,-0.05,0.08,-0.04,-42.31,0.73,-24.71,-99.91,-0.80,97.13,0.422,0.571,-0.510,0.486
62986.000000,0.988,-0.015,-0.176,-0.05,0.02,-0.08,-42.13,0.13,-25.17,-99.91,-0.80,97.13,0.422,0.571,-0.510,0.486
62996.000000,0.989,-0.015,-0.170,0.05,0.12,-0.02,-41.48,1.31,-25.29,-99.91,-0.80,97.13,0.422,0.571,-0.510,0.486
63006.000000,0.990,-0.013,-0.170,0.01,-0.10,-0.00,-42.21,1.08,-25.17,-99.91,-0.80,97.13,0.422,0.571,-0.510,0.486
63016.000000,0.986,-0.015,-0.172,0.05,0.06,0.02,-41.85,1.18,-25.21,-99.91,-0.80,97.13,0.422,0.571,-0.510,0.486
63026.000000,0.988,-0.015,-0.172,-0.03,-0.02,-0.00,-42.17,1.23,-25.13,-99.91,-0.80,97.13,0.422,0.571,-0.510,0.486
63036.000000,0.990,-0.016,-0.172,0.01,-0.02,-0.06,-42.13,1.13,-25.00,-99.91,-0.80,97.13,0.422,0.571,-0.510,0.486
63046.000000,0.989,-0.016,-0.175,0.05,0.06,0.02,-42.50,0.81,-25.33,-99.91,-0.80,97.13,0.422,0.571,-0.510,0.486
63056.000000,0.988,-0.015,-0.168,-0.07,0.04,0.02,-42.54,0.89,-25.17,-99.91,-0.80,97.13,0.422,0.571,-0.510,0.486
63066.000000,0.988,-0.012,-0.170,0.01,0.02,-0.00,-42.31,0.77,-25.25,-99.91,-0.80,97.12,0.422,0.571,-0.510,0.486
63076.000000,0.990,-0.015,-0.171,-0.05,0.02,-0.00,-42.39,0.17,-25.46,-99.91,-0.80,97.12,0.422,0.571,-0.510,0.486
63086.000000,0.989,-0.015,-0.167,-0.03,-0.02,-0.04,-42.21,0.77,-25.46,-99.91,-0.80,97.12,0.422,0.571,-0.510,0.486
63096.000000,0.986,-0.015,-0.171,0.09,0.16,-0.13,-42.58,0.85,-25.46,-99.91,-0.80,97.12,0.422,0.571,-0.510,0.486
63106.000000,0.989,-0.016,-0.175,0.03,0.04,-0.06,-42.27,1.00,-25.38,-99.91,-0.80,97.12,0.422,0.571,-0.510,0.486
63116.000000,0.989,-0.013,-0.176,-0.03,0.02,-0.02,-42.04,1.13,-25.42,-99.91,-0.80,97.12,0.422,0.571,-0.510,0.486
63126.000000,0.989,-0.015,-0.170,0.05,0.16,0.04,-42.35,1.08,-25.25,-99.91,-0.80,97.12,0.422,0.571,-0.510,0.486
63136.000000,0.992,-0.015,-0.174,0.01,0.10,-0.06,-42.21,1.08,-25.50,-99.91,-0.80,97.12,0.422,0.571,-0.510,0.486
63146.000000,0.990,-0.016,-0.172,-0.01,0.00,-0.00,-42.39,1.04,-25.25,-99.91,-0.80,97.12,0.422,0.571,-0.510,0.486
63156.000000,0.989,-0.013,-0.171,0.09,0.02,-0.02,-42.31,1.42,-25.29,-99.91,-0.80,97.12,0.422,0.571,-0.510,0.486
63166.000000,0.990,-0.015,-0.172,0.03,-0.06,0.06,-42.35,1.04,-25.17,-99.91,-0.80,97.12,0.422,0.571,-0.510,0.486
63176.000000,0.986,-0.012,-0.168,0.09,0.04,-0.00,-42.43,1.23,-25.08,-99.91,-0.80,97.12,0.422,0.571,-0.510,0.486
63186.000000,0.988,-0.013,-0.172,0.05,0.14,-0.04,-42.50,0.89,-25.08,-99.91,-0.80,97.12,0.422,0.571,-0.510,0.486
63196.000000,0.989,-0.013,-0.172,-0.07,0.14,-0.00,-42.35,0.63,-25.25,-99.91,-0.80,97.12,0.422,0.571,-0.510,0.486
63206.000000,0.990,-0.013,-0.172,0.01,0.06,-0.02,-42.39,1.00,-25.13,-99.91,-0.80,97.12,0.422,0.571,-0.510,0.486
63216.000000,0.988,-0.015,-0.174,0.07,0.04,-0.04,-42.39,0.54,-24.79,-99.91,-0.80,97.12,0.422,0.571,-0.510,0.486
63226.000000,0.989,-0.011,-0.171,0.01,0.06,-0.08,-42.35,0.58,-25.17,-99.91,-0.80,97.12,0.422,0.571,-0.510,0.486
63236.000000,0.989,-0.013,-0.171,0.03,0.00,-0.06,-42.63,0.58,-25.17,-99.91,-0.80,97.12,0.422,0.571,-0.510,0.486
63246.000000,0.988,-0.012,-0.174,0.09,-0.02,0.06,-43.42,0.73,-25.21,-99.91,-0.80,97.12,0.422,0.571,-0.510,0.486
63256.000000,0.990,-0.015,-0.168,0.03,-0.02,0.04,-43.73,0.77,-25.21,-99.91,-0.80,97.12,0.422,0.571,-0.510,0.486
63266.000000,0.989,-0.013,-0.174,0.07,0.06,-0.08,-43.42,-0.04,-25.79,-99.91,-0.80,97.12,0.422,0.571,-0.510,0.486
63276.000000,0.990,-0.015,-0.171,0.05,0.12,0.14,-43.58,0.27,-25.54,-99.91,-0.80,97.13,0.422,0.571,-0.510,0.486
63286.000000,0.990,-0.013,-0.172,0.05,0.02,0.06,-43.35,0.67,-25.25,-99.91,-0.80,97.13,0.422,0.571,-0.510,0.486
63296.000000,0.988,-0.016,-0.171,0.15,-0.02,-0.09,-42.89,0.35,-25.38,-99.91,-0.80,97.12,0.422,0.571,-0.510,0.486
63306.000000,0.988,-0.012,-0.174,-0.01,-0.02,-0.00,-43.08,0.27,-25.50,-99.91,-0.80,97.13,0.422,0.571,-0.510,0.486
63316.000000,0.986,-0.017,-0.170,0.05,0.14,0.08,-42.96,0.04,-25.38,-99.91,-0.80,97.13,0.422,0.571,-0.510,0.486
63326.000000,0.986,-0.012,-0.171,-0.01,0.06,-0.06,-42.89,0.27,-25.42,-99.91,-0.80,97.13,0.422,0.571,-0.510,0.486
63336.000000,0.988,-0.016,-0.172,0.15,0.14,-0.00,-43.08,-0.04,-25.67,-99.91,-0.80,97.13,0.422,0.571,-0.510,0.486
63346.000000,0.990,-0.012,-0.174,-0.03,0.04,0.04,-42.67,0.58,-25.38,-99.91,-0.80,97.13,0.422,0.571,-0.510,0.486
63356.000000,0.986,-0.012,-0.168,0.03,0.06,-0.08,-42.81,0.67,-25.08,-99.91,-0.81,97.13,0.422,0.571,-0.510,0.486
63366.000000,0.989,-0.016,-0.171,0.03,0.04,0.10,-42.54,0.50,-25.29,-99.91,-0.80,97.13,0.422,0.571,-0.510,0.486
63376.000000,0.989,-0.015,-0.172,0.09,0.12,-0.04,-42.58,0.35,-25.04,-99.91,-0.80,97.13,0.422,0.571,-0.510,0.486
63386.000000,0.989,-0.016,-0.174,-0.01,0.06,-0.10,-42.63,0.58,-25.29,-99.91,-0.81,97.13,0.422,0.571,-0.510,0.486
63396.000000,0.988,-0.013,-0.171,-0.01,0.04,-0.02,-42.81,1.00,-25.46,-99.91,-0.80,97.13,0.422,0.571,-0.510,0.486
63406.000000,0.989,-0.015,-0.174,0.01,0.02,-0.00,-42.73,0.85,-25.42,-99.91,-0.80,97.13,0.422,0.571,-0.510,0.486
63416.000000,0.988,-0.016,-0.172,-0.03,0.06,-0.02,-42.89,0.85,-25.38,-99.91,-0.80,97.13,0.422,0.571,-0.510,0.486
63426.000000,0.986,-0.013,-0.172,0.05,0.06,0.04,-42.67,0.67,-25.04,-99.91,-0.80,97.13,0.422,0.571,-0.510,0.486
63436.000000,0.988,-0.016,-0.175,0.07,0.12,-0.02,-42.73,0.81,-25.29,-99.91,-0.81,97.13,0.422,0.571,-0.510,0.486
63446.000000,0.989,-0.013,-0.170,0.07,0.06,0.02,-42.58,-0.08,-25.33,-99.91,-0.81,97.13,0.422,0.571,-0.510,0.486
63456.000000,0.993,-0.013,-0.175,0.03,0.00,-0.02,-43.08,-0.04,-25.46,-99.91,-0.81,97.13,0.422,0.571,-0.510,0.486
63466.000000,0.990,-0.015,-0.174,0.05,0.12,0.02,-42.89,0.31,-25.38,-99.91,-0.81,97.13,0.422,0.571,-0.510,0.486
63476.000000,0.989,-0.016,-0.171,-0.05,0.00,-0.06,-42.58,0.27,-25.67,-99.91,-0.81,97.13,0.422,0.571,-0.510,0.486
63486.000000,0.988,-0.015,-0.172,-0.01,0.06,0.04,-43.23,0.13,-25.33,-99.91,-0.81,97.13,0.422,0.571,-0.510,0.486
63496.000000,0.990,-0.015,-0.167,0.03,0.00,-0.04,-42.35,0.89,-25.25,-99.91,-0.81,97.13,0.422,0.571,-0.510,0.486
63506.000000,0.988,-0.013,-0.175,0.03,-0.04,-0.02,-42.54,0.77,-25.33,-99.91,-0.81,97.13,0.422,0.571,-0.510,0.486
63516.000000,0.988,-0.016,-0.174,-0.05,0.16,-0.04,-42.39,0.63,-25.33,-99.91,-0.81,97.13,0.422,0.571,-0.510,0.486
63526.000000,0.990,-0.016,-0.172,0.01,0.02,0.04,-42.27,0.54,-25.17,-99.91,-0.81,97.13,0.422,0.571,-0.510,0.486
63536.000000,0.986,-0.013,-0.174,0.01,0.14,-0.04,-42.13,0.77,-25.13,-99.91,-0.81,97.13,0.422,0.571,-0.510,0.486
63546.000000,0.988,-0.015,-0.175,-0.09,0.00,-0.00,-42.54,0.81,-25.25,-99.91,-0.81,97.13,0.422,0.571,-0.510,0.486
63556.000000,0.988,-0.012,-0.170,0.07,0.10,-0.02,-42.31,0.63,-25.04,-99.91,-0.81,97.12,0.422,0.571,-0.510,0.486
63566.000000,0.986,-0.016,-0.174,-0.03,0.08,0.02,-42.50,1.58,-25.38,-99.91,-0.81,97.12,0.422,0.571,-0.510,0.486
63576.000000,0.989,-0.016,-0.174,0.01,0.12,-0.02,-42.43,0.81,-25.29,-99.91,-0.81,97.12,0.422,0.571,-0.510,0.486
63586.000000,0.989,-0.012,-0.170,0.05,0.04,-0.00,-42.35,1.00,-25.33,-99.91,-0.81,97.12,0.422,0.571,-0.510,0.486
63596.000000,0.990,-0.013,-0.176,-0.01,0.10,-0.02,-42.85,0.85,-25.50,-99.91,-0.81,97.12,0.422,0.571,-0.510,0.486
63606.000000,0.988,-0.016,-0.171,0.11,0.10,-0.04,-42.85,1.27,-25.33,-99.90,-0.81,97.12,0.422,0.571,-0.510,0.486
63616.000000,0.988,-0.013,-0.171,0.03,0.00,-0.00,-42.73,1.27,-25.29,-99.90,-0.81,97.12,0.422,0.571,-0.510,0.486
63626.000000,0.988,-0.015,-0.174,0.01,0.10,-0.02,-42.31,0.85,-25.33,-99.90,-0.81,97.12,0.422,0.571,-0.510,0.486
63636.000000,0.988,-0.016,-0.171,-0.03,0.08,-0.02,-42.73,1.18,-25.33,-99.90,-0.81,97.12,0.422,0.571,-0.510,0.486
63646.000000,0.986,-0.015,-0.174,-0.03,-0.08,0.06,-42.96,1.04,-25.50,-99.90,-0.81,97.12,0.422,0.571,-0.510,0.486
63656.000000,0.989,-0.015,-0.172,0.09,0.16,-0.06,-42.85,1.23,-25.54,-99.90,-0.81,97.12,0.422,0.571,-0.510,0.486
63666.000000,0.989,-0.019,-0.168,-0.11,-0.04,-0.04,-43.23,1.27,-25.21,-99.90,-0.81,97.12,0.422,0.571,-0.510,0.486
63676.000000,0.989,-0.015,-0.175,0.19,0.12,-0.04,-43.23,1.27,-25.29,-99.90,-0.81,97.12,0.422,0.571,-0.510,0.486
63686.000000,0.989,-0.016,-0.177,-0.03,0.12,-0.02,-43.58,1.35,-25.29,-99.90,-0.81,97.12,0.422,0.571,-0.510,0.486
63696.000000,0.989,-0.016,-0.170,0.03,-0.08,-0.13,-42.81,0.77,-25.50,-99.90,-0.81,97.12,0.422,0.571,-0.510,0.486
63706.000000,0.986,-0.015,-0.172,0.03,0.10,0.02,-42.27,1.23,-25.29,-99.90,-0.81,97.12,0.422,0.571,-0.510,0.486
63716.000000,0.989,-0.012,-0.171,0.01,0.08,-0.04,-42.21,1.23,-25.50,-99.90,-0.81,97.12,0.422,0.571,-0.510,0.486
63726.000000,0.990,-0.015,-0.174,-0.03,-0.06,-0.02,-42.77,0.81,-25.17,-99.90,-0.81,97.12,0.422,0.571,-0.510,0.486
63736.000000,0.988,-0.013,-0.170,0.01,0.08,-0.02,-42.35,1.13,-25.46,-99.91,-0.81,97.12,0.422,0.571,-0.510,0.486
63746.000000,0.988,-0.016,-0.171,-0.01,0.12,-0.00,-42.08,1.73,-25.38,-99.91,-0.81,97.12,0.422,0.571,-0.510,0.486
63756.000000,0.989,-0.015,-0.171,0.03,0.14,-0.02,-42.50,1.42,-25.67,-99.90,-0.81,97.12,0.422,0.571,-0.510,0.486
63766.000000,0.989,-0.015,-0.174,0.03,0.21,-0.02,-42.43,1.96,-25.46,-99.90,-0.81,97.12,0.422,0.571,-0.510,0.486
63776.000000,0.990,-0.015,-0.172,-0.01,0.00,0.02,-42.27,1.54,-25.63,-99.90,-0.81,97.12,0.422,0.571,-0.510,0.486
63786.000000,0.988,-0.013,-0.174,0.03,0.12,-0.02,-42.27,1.54,-25.50,-99.90,-0.81,97.12,0.422,0.571,-0.510,0.486
63796.000000,0.988,-0.015,-0.172,-0.07,0.02,-0.04,-41.21,1.00,-25.04,-99.90,-0.81,97.12,0.422,0.571,-0.510,0.486
63806.000000,0.990,-0.013,-0.174,-0.05,0.06,-0.06,-41.35,0.81,-25.25,-99.90,-0.81,97.12,0.422,0.571,-0.510,0.486
63816.000000,0.988,-0.015,-0.174,-0.01,0.14,0.02,-41.25,1.04,-25.13,-99.90,-0.81,97.12,0.422,0.571,-0.510,0.486
63826.000000,0.988,-0.013,-0.170,0.07,0.00,-0.13,-41.29,1.00,-25.33,-99.90,-0.81,97.12,0.422,0.571,-0.510,0.486
63836.000000,0.989,-0.015,-0.172,0.05,0.14,-0.04,-40.88,0.50,-25.33,-99.90,-0.81,97.12,0.422,0.571,-0.510,0.486
63846.000000,0.989,-0.016,-0.175,-0.01,-0.02,-0.00,-41.21,0.77,-25.38,-99.90,-0.81,97.12,0.422,0.571,-0.510,0.486
63856.000000,0.989,-0.015,-0.174,0.05,0.08,-0.06,-40.93,0.96,-25.00,-99.90,-0.81,97.12,0.422,0.571,-0.510,0.486
63866.000000,0.990,-0.012,-0.172,0.03,0.04,-0.10,-40.88,1.08,-25.13,-99.90,-0.81,97.12,0.422,0.571,-0.510,0.486
63876.000000,0.989,-0.013,-0.174,0.05,0.08,0.04,-40.83,0.77,-25.63,-99.90,-0.81,97.12,0.422,0.571,-0.510,0.486
63886.000000,0.988,-0.017,-0.174,0.03,0.10,0.04,-40.79,1.13,-25.17,-99.90,-0.81,97.12,0.422,0.571,-0.510,0.486
63896.000000,0.988,-0.013,-0.172,0.01,-0.02,-0.06,-41.25,0.89,-25.17,-99.90,-0.81,97.12,0.422,0.571,-0.510,0.486
63906.000000,0.989,-0.012,-0.172,0.05,-0.02,-0.00,-41.52,0.35,-25.38,-99.90,-0.81,97.12,0.422,0.571,-0.510,0.486
63916.000000,0.986,-0.015,-0.172,0.07,0.02,-0.02,-41.52,0.35,-25.33,-99.90,-0.81,97.12,0.422,0.571,-0.510,0.486
63926.000000,0.989,-0.015,-0.171,0.11,-0.08,-0.06,-41.67,0.67,-25.42,-99.90,-0.81,97.12,0.422,0.571,-0.510,0.486
63936.000000,0.989,-0.015,-0.172,0.07,0.21,-0.08,-41.43,0.96,-25.29,-99.90,-0.81,97.12,0.422,0.571,-0.510,0.486
63946.000000,0.989,-0.013,-0.175,0.07,-0.06,-0.00,-41.39,0.00,-25.33,-99.90,-0.81,97.12,0.422,0.571,-0.510,0.486
63956.000000,0.989,-0.012,-0.172,0.05,0.02,-0.02,-41.52,0.13,-25.04,-99.90,-0.81,97.12,0.422,0.571,-0.510,0.486
63966.000000,0.988,-0.011,-0.170,0.03,0.08,-0.10,-41.67,0.21,-25.00,-99.91,-0.81,97.12,0.422,0.571,-0.510,0.486
63976.000000,0.988,-0.013,-0.172,0.01,0.12,-0.02,-41.58,-0.50,-25.33,-99.91,-0.81,97.12,0.422,0.571,-0.510,0.486
63986.000000,0.989,-0.013,-0.171,-0.07,0.02,-0.06,-41.13,-0.21,-25.25,-99.91,-0.81,97.12,0.422,0.571,-0.510,0.486
63996.000000,0.989,-0.013,-0.172,0.01,0.06,-0.08,-41.35,0.54,-25.33,-99.91,-0.81,97.12,0.422,0.571,-0.510,0.486
64006.000000,0.989,-0.015,-0.175,0.07,0.10,0.02,-41.63,1.04,-25.63,-99.91,-0.81,97.12,0.422,0.571,-0.510,0.486
64016.000000,0.992,-0.012,-0.168,-0.05,0.12,0.02,-41.63,0.96,-25.75,-99.90,-0.81,97.12,0.422,0.571,-0.510,0.486
64026.000000,0.986,-0.013,-0.172,0.03,0.04,0.04,-41.71,0.89,-25.38,-99.90,-0.81,97.12,0.422,0.571,-0.510,0.486
64036.000000,0.988,-0.012,-0.172,0.05,0.04,-0.04,-42.04,0.77,-25.42,-99.90,-0.81,97.12,0.422,0.571,-0.510,0.486
64046.000000,0.990,-0.015,-0.172,0.07,0.00,-0.04,-42.04,0.77,-25.42,-99.90,-0.81,97.12,0.422,0.571,-0.510,0.486
64056.000000,0.990,-0.013,-0.176,0.03,-0.02,-0.00,-41.81,0.73,-25.46,-99.90,-0.81,97.12,0.422,0.571,-0.510,0.486
64066.000000,0.990,-0.017,-0.170,0.03,-0.02,-0.02,-41.52,1.18,-25.63,-99.91,-0.81,97.12,0.422,0.571,-0.510,0.486
64076.000000,0.989,-0.015,-0.175,0.05,0.10,0.02,-41.71,0.50,-25.38,-99.91,-0.81,97.12,0.422,0.571,-0.510,0.486
64086.000000,0.990,-0.015,-0.171,-0.03,0.10,-0.10,-41.48,0.81,-25.42,-99.91,-0.81,97.12,0.422,0.571,-0.510,0.486
64096.000000,0.989,-0.015,-0.170,-0.07,0.00,0.02,-41.48,0.81,-25.42,-99.90,-0.81,97.12,0.422,0.571,-0.510,0.486
64106.000000,0.990,-0.012,-0.175,0.01,0.10,0.02,-40.98,1.35,-25.25,-99.91,-0.81,97.12,0.422,0.571,-0.510,0.486
64116.000000,0.988,-0.012,-0.172,-0.01,0.04,-0.15,-41.25,1.42,-25.42,-99.91,-0.81,97.12,0.422,0.571,-0.510,0.486
64126.000000,0.986,-0.013,-0.171,-0.05,0.12,-0.00,-41.39,1.08,-25.17,-99.91,-0.81,97.12,0.422,0.571,-0.510,0.486
64136.000000,0.990,-0.012,-0.172,0.01,0.12,-0.02,-41.35,1.54,-25.13,-99.90,-0.81,97.12,0.422,0.571,-0.510,0.486
64146.000000,0.986,-0.015,-0.170,-0.07,-0.16,-0.12,-41.35,1.54,-25.13,-99.90,-0.81,97.12,0.422,0.571,-0.510,0.486
64156.000000,0.989,-0.016,-0.171,0.03,0.04,0.02,-41.29,0.96,-25.46,-99.91,-0.81,97.12,0.422,0.571,-0.510,0.486
64166.000000,0.988,-0.015,-0.171,0.09,0.20,0.02,-41.71,1.08,-25.46,-99.91,-0.81,97.12,0.422,0.571,-0.510,0.486
64176.000000,0.988,-0.011,-0.174,0.01,0.16,-0.08,-41.39,0.96,-25.00,-99.90,-0.81,97.12,0.422,0.571,-0.510,0.486
64186.000000,0.988,-0.015,-0.171,0.01,0.00,0.04,-41.21,0.81,-25.33,-99.90,-0.81,97.12,0.422,0.571,-0.510,0.486
64196.000000,0.990,-0.013,-0.172,-0.01,-0.10,-0.04,-41.21,0.81,-25.33,-99.90,-0.81,97.12,0.422,0.571,-0.510,0.486
64206.000000,0.989,-0.015,-0.171,-0.01,0.14,-0.02,-42.13,0.54,-25.42,-99.90,-0.81,97.12,0.422,0.571,-0.510,0.486
64216.000000,0.992,-0.011,-0.172,-0.03,0.14,0.10,-42.04,0.63,-25.17,-99.90,-0.81,97.12,0.422,0.571,-0.510,0.486
64226.000000,0.992,-0.011,-0.175,0.07,0.16,0.02,-42.13,1.13,-25.33,-99.90,-0.81,97.12,0.422,0.571,-0.510,0.486
64236.000000,0.990,-0.013,-0.171,0.07,0.08,-0.06,-41.98,1.23,-25.13,-99.90,-0.81,97.12,0.422,0.571,-0.510,0.486
64246.000000,0.988,-0.015,-0.171,0.05,0.04,-0.00,-41.98,1.23,-25.13,-99.90,-0.81,97.12,0.422,0.571,-0.510,0.486
64256.000000,0.990,-0.012,-0.172,0.07,0.18,-0.06,-42.31,1.96,-25.13,-99.90,-0.81,97.12,0.422,0.571,-0.510,0.486
64266.000000,0.989,-0.013,-0.172,0.13,-0.04,0.02,-42.27,1.77,-25.21,-99.90,-0.81,97.12,0.422,0.571,-0.510,0.486
64276.000000,0.989,-0.015,-0.172,0.01,-0.04,0.04,-42.27,1.88,-25.13,-99.90,-0.81,97.12,0.422,0.571,-0.510,0.486
64286.000000,0.990,-0.016,-0.171,-0.03,-0.02,-0.02,-42.17,1.96,-24.96,-99.90,-0.81,97.12,0.422,0.571,-0.510,0.486
64296.000000,0.986,-0.017,-0.172,0.05,0.12,0.06,-42.17,1.96,-24.96,-99.90,-0.81,97.12,0.422,0.571,-0.510,0.486
64306.000000,0.989,-0.013,-0.174,0.03,0.04,-0.00,-41.63,0.21,-25.33,-99.90,-0.81,97.12,0.422,0.571,-0.510,0.486
64316.000000,0.988,-0.013,-0.175,0.07,0.02,-0.08,-41.81,0.89,-25.04,-99.90,-0.81,97.12,0.422,0.571,-0.510,0.486
64326.000000,0.986,-0.015,-0.171,0.03,0.04,0.06,-41.67,0.43,-25.50,-99.90,-0.81,97.12,0.422,0.571,-0.510,0.486
64336.000000,0.990,-0.015,-0.171,0.01,0.06,-0.04,-41.63,1.00,-25.29,-99.90,-0.81,97.12,0.422,0.571,-0.510,0.486
64346.000000,0.990,-0.015,-0.174,0.07,0.02,-0.06,-41.63,1.00,-25.29,-99.90,-0.81,97.12,0.422,0.571,-0.510,0.486
64356.000000,0.989,-0.012,-0.171,0.03,0.00,-0.04,-41.63,0.89,-25.29,-99.90,-0.81,97.12,0.422,0.571,-0.510,0.486
64366.000000,0.990,-0.017,-0.170,-0.05,0.06,-0.02,-41.89,0.54,-25.50,-99.90,-0.81,97.12,0.422,0.571,-0.510,0.486
64376.000000,0.989,-0.013,-0.171,0.07,-0.04,0.04,-41.63,1.13,-25.08,-99.90,-0.81,97.12,0.422,0.571,-0.510,0.486
64386.000000,0.988,-0.016,-0.176,0.09,0.08,-0.08,-41.71,0.73,-25.04,-99.91,-0.81,97.12,0.422,0.571,-0.510,0.486
64396.000000,0.989,-0.013,-0.174,0.07,0.08,-0.04,-41.71,0.73,-25.04,-99.90,-0.81,97.12,0.422,0.571,-0.510,0.486
64406.000000,0.990,-0.016,-0.171,0.07,0.06,0.02,-41.29,1.35,-25.38,-99.90,-0.81,97.12,0.422,0.571,-0.510,0.486
64416.000000,0.989,-0.016,-0.176,0.11,0.08,-0.11,-41.29,1.35,-25.38,-99.90,-0.81,97.12,0.422,0.571,-0.510,0.486
64426.000000,0.989,-0.015,-0.170,0.13,0.04,-0.00,-41.29,1.35,-25.38,-99.90,-0.81,97.12,0.422,0.571,-0.510,0.486
64436.000000,0.990,-0.012,-0.175,-0.01,0.10,-0.08,-41.29,1.35,-25.38,-99.90,-0.81,97.12,0.422,0.571,-0.510,0.486
64446.000000,0.986,-0.013,-0.174,-0.09,0.21,-0.00,-41.29,1.35,-25.38,-99.90,-0.81,97.12,0.422,0.571,-0.510,0.486
64456.000000,0.988,-0.015,-0.170,0.01,0.14,-0.00,-40.83,0.73,-25.13,-99.90,-0.81,97.12,0.422,0.571,-0.510,0.486
64466.000000,0.989,-0.015,-0.176,0.07,0.10,-0.06,-40.83,0.81,-25.54,-99.90,-0.81,97.12,0.422,0.571,-0.510,0.486
64476.000000,0.989,-0.016,-0.172,-0.07,0.12,0.02,-41.17,1.04,-25.33,-99.90,-0.81,97.12,0.422,0.571,-0.510,0.486
64486.000000,0.989,-0.015,-0.174,-0.01,0.08,0.02,-40.93,0.67,-25.50,-99.90,-0.81,97.12,0.422,0.571,-0.510,0.486
64496.000000,0.992,-0.015,-0.175,-0.05,0.04,-0.02,-41.25,0.96,-25.13,-99.90,-0.81,97.12,0.422,0.571,-0.510,0.486
64506.000000,0.988,-0.013,-0.171,0.03,0.10,-0.08,-41.48,0.77,-25.13,-99.90,-0.81,97.12,0.422,0.571,-0.510,0.486
64516.000000,0.988,-0.012,-0.171,0.05,0.08,-0.02,-42.08,1.04,-25.00,-99.90,-0.81,97.12,0.422,0.571,-0.510,0.486
64526.000000,0.988,-0.015,-0.171,0.07,0.00,-0.00,-42.04,0.67,-25.50,-99.90,-0.81,97.12,0.422,0.571,-0.510,0.486
64536.000000,0.988,-0.013,-0.172,-0.07,0.10,-0.04,-41.75,0.85,-25.13,-99.90,-0.81,97.12,0.422,0.571,-0.510,0.486
64546.000000,0.992,-0.015,-0.175,0.03,0.14,-0.02,-41.63,0.81,-25.04,-99.90,-0.81,97.12,0.422,0.571,-0.510,0.486
64556.000000,0.990,-0.017,-0.176,0.03,0.04,-0.00,-41.81,1.81,-25.25,-99.90,-0.81,97.12,0.422,0.571,-0.510,0.486
64566.000000,0.989,-0.012,-0.174,0.13,0.08,-0.11,-41.85,2.14,-25.13,-99.90,-0.81,97.12,0.422,0.571,-0.510,0.486
64576.000000,0.989,-0.016,-0.172,0.07,0.02,-0.04,-41.81,2.04,-25.63,-99.90,-0.81,97.12,0.422,0.571,-0.510,0.486
64586.000000,0.989,-0.015,-0.171,-0.05,0.04,0.04,-41.98,1.54,-25.38,-99.90,-0.81,97.12,0.422,0.571,-0.510,0.486
64596.000000,0.989,-0.015,-0.172,0.05,0.04,-0.06,-41.35,1.73,-25.67,-99.90,-0.81,97.12,0.422,0.571,-0.510,0.486
64606.000000,0.990,-0.012,-0.175,0.11,0.08,-0.13,-42.04,0.27,-25.21,-99.90,-0.81,97.12,0.422,0.571,-0.510,0.486
64616.000000,0.990,-0.012,-0.174,0.01,0.02,-0.08,-42.31,0.35,-24.79,-99.90,-0.81,97.12,0.422,0.571,-0.510,0.486
64626.000000,0.988,-0.015,-0.174,0.01,0.08,-0.04,-41.98,0.27,-24.96,-99.90,-0.81,97.12,0.422,0.571,-0.510,0.486
64636.000000,0.992,-0.013,-0.174,0.01,0.16,-0.02,-42.13,0.50,-25.33,-99.90,-0.81,97.12,0.422,0.571,-0.510,0.486
64646.000000,0.989,-0.015,-0.172,-0.03,0.02,-0.02,-41.85,0.13,-24.88,-99.90,-0.81,97.12,0.422,0.571,-0.510,0.486
64656.000000,0.986,-0.011,-0.170,-0.05,0.08,0.02,-42.43,1.50,-25.33,-99.90,-0.81,97.12,0.422,0.571,-0.510,0.486
64666.000000,0.990,-0.013,-0.176,0.03,0.16,0.08,-42.96,1.35,-25.33,-99.90,-0.81,97.12,0.422,0.571,-0.510,0.486
64676.000000,0.992,-0.015,-0.170,0.01,-0.02,-0.08,-42.77,1.64,-25.00,-99.90,-0.81,97.12,0.422,0.571,-0.510,0.486
64686.000000,0.990,-0.013,-0.170,-0.03,0.10,-0.00,-42.67,1.35,-25.38,-99.90,-0.81,97.12,0.422,0.571,-0.510,0.486
64696.000000,0.988,-0.016,-0.174,0.01,0.10,0.04,-42.81,1.23,-25.25,-99.90,-0.81,97.12,0.422,0.571,-0.510,0.486
64706.000000,0.988,-0.015,-0.172,0.05,-0.08,-0.04,-41.48,1.23,-25.21,-99.90,-0.81,97.12,0.422,0.571,-0.510,0.486
64716.000000,0.989,-0.016,-0.171,-0.05,0.04,-0.04,-41.81,1.08,-25.33,-99.90,-0.81,97.12,0.422,0.571,-0.510,0.486
64726.000000,0.990,-0.015,-0.174,-0.03,0.02,0.02,-41.58,0.96,-25.04,-99.90,-0.81,97.12,0.422,0.571,-0.510,0.486
64736.000000,0.986,-0.012,-0.172,-0.03,0.18,-0.08,-41.52,1.04,-25.17,-99.90,-0.81,97.12,0.422,0.571,-0.510,0.486
64746.000000,0.989,-0.013,-0.172,-0.03,0.12,-0.04,-41.81,1.13,-25.04,-99.90,-0.81,97.12,0.422,0.571,-0.510,0.486
64756.000000,0.988,-0.013,-0.172,-0.03,0.06,-0.17,-41.29,1.31,-25.29,-99.90,-0.80,97.12,0.422,0.571,-0.510,0.486
64766.000000,0.989,-0.015,-0.171,-0.09,0.02,-0.00,-41.39,1.35,-25.33,-99.90,-0.80,97.12,0.422,0.571,-0.510,0.486
64776.000000,0.990,-0.013,-0.172,0.03,-0.02,-0.00,-41.48,0.96,-25.42,-99.90,-0.80,97.12,0.422,0.571,-0.510,0.486
64786.000000,0.989,-0.015,-0.172,-0.01,0.14,0.04,-41.39,1.42,-25.21,-99.90,-0.80,97.12,0.422,0.571,-0.510,0.486
64796.000000,0.985,-0.012,-0.175,0.03,0.08,-0.06,-41.02,1.35,-25.00,-99.90,-0.80,97.12,0.422,0.571,-0.510,0.486
64806.000000,0.993,-0.017,-0.175,0.05,-0.10,-0.04,-41.35,1.13,-25.29,-99.90,-0.80,97.12,0.422,0.571,-0.510,0.486
64816.000000,0.989,-0.013,-0.175,0.05,0.00,-0.04,-41.21,0.89,-25.08,-99.90,-0.80,97.12,0.422,0.571,-0.510,0.486
64826.000000,0.990,-0.015,-0.171,0.05,0.04,0.06,-41.39,1.04,-25.42,-99.90,-0.80,97.12,0.422,0.571,-0.510,0.486
64836.000000,0.989,-0.015,-0.176,0.01,0.10,-0.02,-41.48,0.85,-24.92,-99.90,-0.81,97.12,0.422,0.571,-0.510,0.486
64846.000000,0.989,-0.013,-0.172,-0.01,0.00,-0.06,-41.17,1.04,-25.33,-99.90,-0.81,97.12,0.422,0.571,-0.510,0.486
64856.000000,0.988,-0.015,-0.172,-0.01,0.08,-0.02,-41.71,1.35,-25.33,-99.90,-0.81,97.12,0.422,0.571,-0.510,0.486
64866.000000,0.989,-0.012,-0.175,-0.03,0.23,0.02,-40.98,1.35,-25.08,-99.90,-0.81,97.12,0.422,0.571,-0.510,0.486
64876.000000,0.988,-0.012,-0.172,0.01,0.02,-0.04,-41.02,1.13,-24.83,-99.90,-0.81,97.12,0.422,0.571,-0.510,0.486
64886.000000,0.989,-0.013,-0.174,0.01,0.04,-0.02,-40.83,1.46,-24.88,-99.90,-0.81,97.12,0.422,0.571,-0.510,0.486
64896.000000,0.990,-0.012,-0.168,-0.01,0.00,-0.04,-41.21,1.50,-25.08,-99.90,-0.80,97.12,0.422,0.571,-0.510,0.486
64906.000000,0.990,-0.011,-0.174,-0.07,0.02,-0.02,-41.71,0.77,-25.25,-99.90,-0.80,97.12,0.422,0.571,-0.510,0.486
64916.000000,0.988,-0.012,-0.174,0.05,0.10,-0.06,-42.08,0.81,-25.08,-99.90,-0.80,97.12,0.422,0.571,-0.510,0.486
64926.000000,0.990,-0.015,-0.175,0.07,-0.04,0.02,-42.27,1.13,-25.25,-99.90,-0.80,97.12,0.422,0.571,-0.510,0.486
64936.000000,0.988,-0.015,-0.174,-0.01,0.08,-0.06,-41.93,0.85,-25.13,-99.90,-0.80,97.12,0.422,0.571,-0.510,0.486
64946.000000,0.989,-0.017,-0.172,-0.03,0.06,-0.10,-42.39,0.73,-25.08,-99.90,-0.80,97.12,0.422,0.571,-0.510,0.486
64956.000000,0.990,-0.013,-0.171,0.01,0.08,-0.02,-41.58,1.50,-25.29,-99.90,-0.80,97.12,0.422,0.571,-0.510,0.486
64966.000000,0.989,-0.013,-0.174,0.07,0.06,-0.04,-41.39,0.89,-25.33,-99.90,-0.80,97.12,0.422,0.571,-0.510,0.486
64976.000000,0.989,-0.012,-0.170,0.05,0.06,-0.08,-41.52,1.00,-24.96,-99.90,-0.80,97.12,0.422,0.571,-0.510,0.486
64986.000000,0.988,-0.016,-0.167,0.03,0.06,0.06,-41.35,0.96,-25.29,-99.90,-0.80,97.12,0.422,0.571,-0.510,0.486
64996.000000,0.990,-0.013,-0.174,0.03,0.18,-0.04,-41.43,0.89,-25.33,-99.90,-0.80,97.12,0.422,0.571,-0.510,0.486
65006.000000,0.992,-0.016,-0.170,0.01,0.00,0.02,-41.52,1.13,-25.17,-99.90,-0.80,97.12,0.422,0.571,-0.510,0.486
65016.000000,0.988,-0.016,-0.175,0.05,0.00,-0.02,-41.52,1.27,-25.08,-99.90,-0.80,97.12,0.422,0.571,-0.510,0.486
65026.000000,0.989,-0.012,-0.172,-0.01,0.08,-0.00,-41.43,0.89,-25.13,-99.90,-0.80,97.12,0.422,0.571,-0.510,0.486
65036.000000,0.989,-0.013,-0.174,-0.07,0.08,0.02,-41.52,1.04,-25.00,-99.90,-0.80,97.12,0.422,0.571,-0.510,0.486
65046.000000,0.989,-0.012,-0.172,0.03,0.10,0.04,-41.25,1.27,-24.96,-99.90,-0.80,97.11,0.422,0.571,-0.510,0.486
65056.000000,0.988,-0.013,-0.172,0.07,0.06,0.08,-41.67,0.81,-25.25,-99.90,-0.80,97.11,0.422,0.571,-0.510,0.486
65066.000000,0.993,-0.013,-0.172,0.05,0.06,-0.04,-41.58,0.58,-25.29,-99.90,-0.81,97.11,0.422,0.571,-0.510,0.486
65077.000000,0.986,-0.015,-0.172,0.03,0.06,-0.04,-41.93,1.23,-25.25,-99.90,-0.80,97.11,0.422,0.571,-0.510,0.486
65086.000000,0.989,-0.013,-0.174,0.07,0.02,-0.13,-41.81,0.81,-25.25,-99.90,-0.80,97.12,0.422,0.571,-0.510,0.486
65096.000000,0.989,-0.016,-0.172,-0.07,0.08,-0.00,-41.75,0.73,-25.17,-99.90,-0.80,97.12,0.422,0.571,-0.510,0.486
65106.000000,0.990,-0.012,-0.172,0.07,0.02,-0.04,-41.13,0.81,-25.29,-99.90,-0.80,97.11,0.422,0.571,-0.510,0.486
65116.000000,0.989,-0.016,-0.172,0.11,0.06,-0.04,-40.93,0.77,-25.50,-99.90,-0.80,97.11,0.422,0.571,-0.510,0.486
65126.000000,0.989,-0.017,-0.168,0.03,0.12,-0.06,-41.13,0.39,-25.46,-99.90,-0.80,97.12,0.422,0.571,-0.510,0.486
65136.000000,0.990,-0.015,-0.171,0.05,0.20,-0.00,-41.25,0.73,-25.33,-99.90,-0.80,97.12,0.422,0.571,-0.510,0.486
65146.000000,0.988,-0.013,-0.176,0.11,0.14,-0.02,-41.06,0.67,-25.13,-99.90,-0.80,97.12,0.422,0.571,-0.510,0.486
65156.000000,0.990,-0.016,-0.172,0.05,-0.06,-0.02,-41.75,0.58,-25.21,-99.90,-0.80,97.12,0.422,0.571,-0.510,0.486
65167.000000,0.988,-0.013,-0.171,0.01,0.04,-0.06,-42.35,1.00,-25.17,-99.90,-0.80,97.12,0.422,0.571,-0.510,0.486
65177.000000,0.992,-0.013,-0.172,-0.03,0.04,-0.00,-42.17,0.89,-25.50,-99.90,-0.80,97.12,0.422,0.571,-0.510,0.486
65187.000000,0.988,-0.015,-0.171,0.05,0.00,-0.00,-41.89,0.96,-25.17,-99.90,-0.80,97.12,0.422,0.571,-0.510,0.486
65197.000000,0.988,-0.012,-0.172,-0.05,0.04,-0.00,-41.98,0.96,-25.21,-99.90,-0.80,97.12,0.422,0.571,-0.510,0.486
65207.000000,0.990,-0.013,-0.171,0.11,0.23,-0.08,-41.71,0.00,-25.29,-99.90,-0.80,97.12,0.422,0.571,-0.510,0.486
65217.000000,0.989,-0.015,-0.170,-0.01,0.14,-0.04,-41.48,-0.04,-25.00,-99.90,-0.80,97.12,0.422,0.571,-0.510,0.486
65227.000000,0.990,-0.015,-0.172,0.03,-0.02,0.02,-41.67,-0.04,-25.08,-99.90,-0.80,97.12,0.422,0.571,-0.510,0.486
65237.000000,0.988,-0.015,-0.170,0.05,0.06,0.02,-41.63,-0.08,-25.42,-99.90,-0.80,97.12,0.422,0.571,-0.510,0.486
65247.000000,0.986,-0.013,-0.174,0.07,0.08,-0.02,-41.89,0.13,-24.88,-99.90,-0.80,97.12,0.422,0.571,-0.510,0.486
65257.000000,0.986,-0.015,-0.174,0.01,-0.04,0.02,-40.42,0.77,-25.33,-99.89,-0.80,97.12,0.422,0.571,-0.510,0.486
65267.000000,0.990,-0.015,-0.171,0.05,0.00,-0.04,-40.79,0.89,-25.38,-99.90,-0.80,97.12,0.422,0.571,-0.510,0.486
65277.000000,0.988,-0.013,-0.174,0.01,0.21,-0.04,-40.25,0.96,-25.75,-99.90,-0.80,97.12,0.422,0.571,-0.510,0.486
65287.000000,0.989,-0.013,-0.175,-0.01,-0.02,-0.02,-40.60,0.39,-25.58,-99.90,-0.80,97.12,0.422,0.571,-0.510,0.486
65297.000000,0.989,-0.013,-0.172,-0.03,0.16,0.06,-40.79,0.67,-25.50,-99.90,-0.80,97.12,0.422,0.571,-0.510,0.486
65307.000000,0.992,-0.013,-0.175,-0.01,0.12,-0.08,-41.52,1.42,-24.96,-99.90,-0.80,97.12,0.422,0.571,-0.510,0.486
65317.000000,0.990,-0.015,-0.174,0.01,0.02,-0.08,-41.29,1.58,-25.17,-99.89,-0.80,97.12,0.422,0.571,-0.510,0.486
65327.000000,0.989,-0.012,-0.172,-0.05,0.02,-0.06,-41.17,1.35,-25.21,-99.89,-0.80,97.12,0.422,0.571,-0.510,0.486
65337.000000,0.986,-0.012,-0.168,0.03,0.12,-0.06,-41.81,1.31,-25.29,-99.90,-0.80,97.12,0.422,0.571,-0.510,0.486
65347.000000,0.988,-0.015,-0.174,0.05,0.00,0.06,-41.48,1.23,-24.83,-99.90,-0.80,97.12,0.422,0.571,-0.510,0.486
65357.000000,0.988,-0.011,-0.171,0.07,0.04,-0.06,-41.81,0.63,-25.33,-99.90,-0.80,97.12,0.422,0.571,-0.510,0.486
65367.000000,0.986,-0.013,-0.175,-0.01,-0.08,0.02,-41.67,0.73,-25.38,-99.90,-0.80,97.12,0.422,0.571,-0.510,0.486
65377.000000,0.989,-0.013,-0.171,0.03,0.00,-0.08,-41.71,0.77,-25.13,-99.90,-0.80,97.12,0.422,0.571,-0.510,0.486
65387.000000,0.990,-0.015,-0.175,0.01,0.06,0.06,-41.93,0.54,-25.33,-99.90,-0.80,97.12,0.422,0.571,-0.510,0.486
65397.000000,0.993,-0.015,-0.170,0.03,0.10,-0.04,-41.71,0.85,-25.63,-99.90,-0.80,97.12,0.422,0.571,-0.510,0.486
65407.000000,0.989,-0.013,-0.172,-0.01,-0.02,-0.00,-41.98,0.85,-25.17,-99.90,-0.80,97.12,0.422,0.571,-0.510,0.486
65417.000000,0.990,-0.012,-0.171,-0.03,0.00,-0.08,-41.35,0.54,-25.67,-99.90,-0.80,97.12,0.422,0.571,-0.510,0.486
65427.000000,0.988,-0.015,-0.168,0.03,0.18,-0.06,-41.98,0.58,-25.46,-99.90,-0.80,97.12,0.422,0.571,-0.510,0.486
65437.000000,0.989,-0.013,-0.170,0.07,0.04,-0.08,-42.08,0.67,-25.33,-99.90,-0.80,97.12,0.422,0.571,-0.510,0.486
65447.000000,0.988,-0.015,-0.172,0.13,0.02,-0.02,-41.63,0.58,-25.50,-99.90,-0.80,97.12,0.422,0.571,-0.510,0.486
65457.000000,0.989,-0.016,-0.171,0.03,-0.02,-0.06,-41.58,0.50,-25.46,-99.90,-0.80,97.12,0.422,0.571,-0.510,0.486
65467.000000,0.990,-0.015,-0.170,0.05,0.00,0.02,-41.58,0.31,-25.04,-99.90,-0.80,97.12,0.422,0.571,-0.510,0.486
65477.000000,0.990,-0.011,-0.171,0.07,0.10,0.06,-41.93,0.81,-25.17,-99.90,-0.80,97.12,0.422,0.571,-0.510,0.486
65487.000000,0.989,-0.011,-0.171,0.09,0.16,-0.08,-41.93,0.17,-25.33,-99.90,-0.80,97.12,0.422,0.571,-0.510,0.486
65497.000000,0.990,-0.012,-0.172,0.05,0.08,-0.00,-41.75,0.77,-25.04,-99.90,-0.80,97.12,0.422,0.571,-0.510,0.486
65507.000000,0.992,-0.012,-0.170,-0.01,0.02,-0.04,-41.35,0.89,-25.38,-99.90,-0.80,97.12,0.422,0.571,-0.510,0.486
65517.000000,0.989,-0.015,-0.172,0.01,0.14,-0.02,-41.29,0.39,-25.33,-99.90,-0.80,97.12,0.422,0.571,-0.510,0.486
65527.000000,0.989,-0.013,-0.171,-0.05,0.16,-0.04,-41.29,0.81,-25.33,-99.89,-0.80,97.12,0.422,0.571,-0.510,0.486
65537.000000,0.989,-0.013,-0.174,0.05,0.06,-0.02,-41.63,0.81,-25.29,-99.89,-0.80,97.12,0.422,0.571,-0.510,0.486
65547.000000,0.993,-0.013,-0.171,0.03,0.02,-0.02,-41.39,0.43,-25.38,-99.89,-0.80,97.12,0.422,0.571,-0.510,0.486
65557.000000,0.988,-0.012,-0.171,0.01,0.10,-0.02,-41.39,1.35,-25.42,-99.89,-0.80,97.12,0.422,0.571,-0.510,0.486
65567.000000,0.989,-0.012,-0.174,0.01,0.10,-0.06,-41.02,1.46,-25.42,-99.89,-0.80,97.12,0.422,0.571,-0.510,0.486
65577.000000,0.990,-0.015,-0.171,0.09,0.00,0.04,-41.25,1.46,-25.25,-99.89,-0.80,97.12,0.422,0.571,-0.510,0.486
65587.000000,0.989,-0.012,-0.174,0.13,-0.06,-0.00,-41.21,1.31,-25.04,-99.89,-0.80,97.12,0.422,0.571,-0.510,0.486
65597.000000,0.992,-0.012,-0.172,0.03,0.06,-0.00,-41.35,1.64,-24.88,-99.90,-0.80,97.12,0.422,0.571,-0.510,0.486
65607.000000,0.988,-0.015,-0.174,0.01,0.00,0.04,-41.71,1.54,-25.25,-99.90,-0.80,97.12,0.422,0.571,-0.510,0.486
65617.000000,0.990,-0.015,-0.171,0.01,0.10,-0.04,-41.81,1.08,-25.21,-99.90,-0.80,97.12,0.422,0.571,-0.510,0.486
65627.000000,0.989,-0.015,-0.172,0.13,0.04,-0.08,-41.89,1.42,-25.29,-99.90,-0.80,97.12,0.422,0.571,-0.510,0.486
65637.000000,0.990,-0.013,-0.174,0.11,0.04,-0.00,-41.43,1.54,-25.33,-99.90,-0.80,97.12,0.422,0.571,-0.510,0.486
65647.000000,0.989,-0.015,-0.175,0.11,0.12,0.02,-41.93,1.23,-25.46,-99.90,-0.80,97.12,0.422,0.571,-0.510,0.486
65657.000000,0.993,-0.015,-0.174,0.03,0.12,-0.06,-41.93,0.81,-25.17,-99.90,-0.80,97.12,0.422,0.571,-0.510,0.486
65667.000000,0.986,-0.016,-0.176,0.09,0.06,0.10,-41.89,0.63,-24.92,-99.90,-0.80,97.12,0.422,0.571,-0.510,0.486
65677.000000,0.990,-0.017,-0.168,0.03,0.08,-0.08,-41.48,0.77,-25.25,-99.89,-0.80,97.12,0.422,0.571,-0.510,0.486
65687.000000,0.989,-0.013,-0.172,0.03,-0.04,-0.02,-41.75,1.00,-25.25,-99.89,-0.80,97.12,0.422,0.571,-0.510,0.486
65697.000000,0.989,-0.015,-0.170,-0.07,0.10,-0.00,-41.81,1.04,-25.13,-99.89,-0.80,97.12,0.422,0.571,-0.510,0.486
65707.000000,0.989,-0.016,-0.177,-0.01,-0.02,-0.02,-41.63,0.85,-25.13,-99.90,-0.80,97.12,0.422,0.571,-0.510,0.486
65717.000000,0.988,-0.013,-0.175,0.09,0.04,-0.00,-41.43,0.35,-25.17,-99.89,-0.81,97.12,0.422,0.571,-0.510,0.486
65727.000000,0.990,-0.015,-0.171,-0.03,0.00,0.02,-41.48,1.00,-25.33,-99.90,-0.81,97.12,0.422,0.571,-0.510,0.486
65737.000000,0.989,-0.011,-0.172,0.19,0.04,-0.04,-41.29,0.81,-25.17,-99.90,-0.81,97.12,0.422,0.571,-0.510,0.486
65747.000000,0.990,-0.016,-0.172,-0.01,0.06,-0.04,-41.58,0.73,-25.75,-99.90,-0.81,97.12,0.422,0.571,-0.510,0.486
65757.000000,0.989,-0.015,-0.172,-0.03,0.00,-0.08,-41.85,0.67,-25.46,-99.90,-0.81,97.12,0.422,0.571,-0.510,0.486
65767.000000,0.989,-0.013,-0.172,-0.01,0.06,-0.00,-41.29,0.35,-25.33,-99.90,-0.81,97.12,0.422,0.571,-0.510,0.486
65777.000000,0.990,-0.015,-0.172,0.05,0.08,-0.06,-41.39,0.35,-25.42,-99.90,-0.81,97.12,0.422,0.571,-0.510,0.486
65787.000000,0.989,-0.013,-0.171,-0.01,0.18,-0.00,-41.67,0.73,-25.29,-99.90,-0.81,97.12,0.422,0.571,-0.510,0.486
65797.000000,0.990,-0.015,-0.171,-0.03,0.16,-0.06,-41.29,0.67,-25.38,-99.90,-0.81,97.12,0.422,0.571,-0.510,0.486
65807.000000,0.989,-0.013,-0.174,0.01,0.16,0.02,-42.08,0.50,-25.00,-99.89,-0.81,97.12,0.422,0.571,-0.510,0.486
65817.000000,0.986,-0.015,-0.174,0.09,0.00,-0.04,-41.58,0.67,-25.25,-99.89,-0.81,97.12,0.422,0.571,-0.510,0.486
65827.000000,0.989,-0.013,-0.172,-0.05,0.00,-0.02,-42.04,0.58,-25.50,-99.89,-0.81,97.12,0.422,0.571,-0.510,0.486
65837.000000,0.989,-0.015,-0.172,0.05,0.06,0.04,-41.98,0.89,-25.29,-99.89,-0.81,97.12,0.422,0.571,-0.510,0.486
65847.000000,0.988,-0.015,-0.170,0.07,0.06,-0.06,-41.71,0.27,-25.38,-99.89,-0.81,97.12,0.422,0.571,-0.510,0.486
65857.000000,0.989,-0.011,-0.172,0.05,0.06,-0.04,-42.27,0.81,-25.17,-99.89,-0.81,97.12,0.422,0.571,-0.510,0.486
65867.000000,0.986,-0.015,-0.171,0.03,-0.04,-0.04,-42.08,0.96,-25.13,-99.89,-0.81,97.12,0.422,0.571,-0.510,0.486
65877.000000,0.988,-0.013,-0.171,0.05,0.10,-0.02,-42.35,1.13,-25.29,-99.90,-0.80,97.12,0.422,0.571,-0.510,0.486
65887.000000,0.989,-0.013,-0.174,-0.05,0.06,-0.06,-42.31,0.96,-24.83,-99.89,-0.80,97.12,0.422,0.571,-0.510,0.486
65897.000000,0.989,-0.015,-0.171,-0.07,0.06,-0.00,-42.35,0.54,-25.33,-99.89,-0.80,97.12,0.422,0.571,-0.510,0.486
65907.000000,0.992,-0.013,-0.172,0.01,0.16,0.06,-42.35,0.54,-25.33,-99.89,-0.80,97.12,0.422,0.571,-0.510,0.486
65917.000000,0.990,-0.016,-0.171,0.01,-0.04,-0.00,-42.35,0.43,-25.25,-99.89,-0.80,97.12,0.422,0.571,-0.510,0.486
65927.000000,0.988,-0.012,-0.177,0.03,0.00,-0.04,-42.21,0.85,-25.04,-99.89,-0.80,97.12,0.422,0.571,-0.510,0.486
65937.000000,0.989,-0.015,-0.177,-0.05,0.14,-0.06,-42.17,0.89,-25.42,-99.89,-0.80,97.12,0.422,0.571,-0.510,0.486
65947.000000,0.988,-0.013,-0.174,0.01,0.02,-0.06,-42.17,0.85,-25.08,-99.89,-0.80,97.12,0.422,0.571,-0.510,0.486
65957.000000,0.992,-0.013,-0.172,-0.07,0.10,0.04,-42.17,0.85,-25.08,-99.90,-0.80,97.12,0.422,0.571,-0.510,0.486
65967.000000,0.989,-0.016,-0.176,0.11,0.02,-0.00,-42.58,0.85,-25.17,-99.90,-0.80,97.12,0.422,0.571,-0.510,0.486
65977.000000,0.988,-0.016,-0.172,0.05,0.02,-0.10,-42.39,0.89,-25.25,-99.90,-0.80,97.12,0.422,0.571,-0.510,0.486
65987.000000,0.990,-0.016,-0.171,0.03,0.08,-0.04,-42.54,0.73,-25.21,-99.90,-0.80,97.12,0.422,0.571,-0.510,0.486
65997.000000,0.990,-0.012,-0.175,0.03,0.02,0.04,-42.58,1.08,-24.92,-99.90,-0.80,97.12,0.422,0.571,-0.510,0.486
66007.000000,0.986,-0.013,-0.174,0.07,0.14,-0.04,-42.58,1.08,-24.92,-99.90,-0.80,97.12,0.422,0.571,-0.510,0.486
66017.000000,0.988,-0.015,-0.170,0.07,0.06,0.04,-42.39,-0.04,-25.25,-99.90,-0.80,97.12,0.422,0.571,-0.510,0.486
66027.000000,0.988,-0.015,-0.174,0.09,0.04,-0.04,-42.43,-0.50,-24.79,-99.90,-0.80,97.12,0.422,0.571,-0.510,0.486
66037.000000,0.988,-0.013,-0.172,-0.03,0.08,-0.00,-42.43,0.31,-25.00,-99.90,-0.80,97.12,0.422,0.571,-0.510,0.486
66047.000000,0.990,-0.013,-0.171,0.03,0.00,-0.02,-42.58,-0.04,-25.00,-99.90,-0.81,97.12,0.422,0.571,-0.510,0.486
66057.000000,0.988,-0.015,-0.171,0.01,-0.04,-0.08,-42.58,-0.04,-25.00,-99.90,-0.81,97.12,0.422,0.571,-0.510,0.486
66067.000000,0.990,-0.013,-0.171,0.01,0.06,-0.00,-42.81,0.96,-25.17,-99.90,-0.80,97.12,0.422,0.571,-0.510,0.486
66077.000000,0.989,-0.013,-0.175,0.05,0.00,0.06,-42.73,0.96,-24.96,-99.90,-0.80,97.12,0.422,0.571,-0.510,0.486
66087.000000,0.992,-0.016,-0.172,0.07,0.16,-0.10,-42.73,1.00,-25.04,-99.90,-0.80,97.12,0.422,0.571,-0.510,0.486
66097.000000,0.990,-0.012,-0.172,0.03,0.02,-0.06,-42.63,1.04,-24.96,-99.90,-0.80,97.12,0.422,0.571,-0.510,0.486
66107.000000,0.992,-0.017,-0.174,0.01,-0.04,-0.06,-42.63,1.04,-24.96,-99.90,-0.80,97.12,0.422,0.571,-0.510,0.486
66117.000000,0.992,-0.012,-0.172,0.09,0.04,0.02,-42.21,1.42,-25.17,-99.90,-0.80,97.12,0.422,0.571,-0.510,0.486
66127.000000,0.989,-0.013,-0.172,0.03,0.04,-0.04,-42.35,1.42,-25.38,-99.90,-0.80,97.12,0.422,0.571,-0.510,0.486
66137.000000,0.989,-0.015,-0.175,0.17,0.25,-0.02,-42.27,1.64,-25.50,-99.90,-0.80,97.12,0.422,0.571,-0.510,0.486
66147.000000,0.989,-0.013,-0.171,0.03,-0.10,-0.06,-42.50,1.50,-25.33,-99.90,-0.80,97.12,0.422,0.571,-0.510,0.486
66157.000000,0.990,-0.010,-0.172,0.01,0.04,-0.00,-42.50,1.50,-25.33,-99.90,-0.80,97.12,0.422,0.571,-0.510,0.486
66167.000000,0.988,-0.016,-0.174,0.03,-0.02,-0.02,-41.98,1.50,-25.21,-99.90,-0.80,97.12,0.422,0.571,-0.510,0.486
66177.000000,0.989,-0.016,-0.167,0.05,0.14,-0.04,-41.85,1.81,-25.00,-99.90,-0.80,97.12,0.422,0.571,-0.510,0.486
66187.000000,0.989,-0.015,-0.172,0.05,0.04,-0.06,-41.75,1.88,-25.04,-99.90,-0.80,97.12,0.422,0.571,-0.510,0.486
