TimeStamp,AccX,AccY,AccZ,GyrX,GyrY,GyrZ,MagX,MagY,MagZ,Roll,Pitch,Yaw,Qw,Qx,Qy,Qz
4878578.000000,0.011,-0.035,1.010,0.05,0.07,-0.05,-21.71,-17.00,-17.33,-0.75,-2.01,76.33,0.786,-0.010,-0.016,0.618
4878588.000000,0.011,-0.035,1.009,-0.01,-0.03,0.01,-21.52,-17.23,-17.75,-0.75,-2.01,76.33,0.786,-0.010,-0.016,0.618
4878598.000000,0.014,-0.034,1.005,-0.01,-0.03,-0.05,-21.52,-17.23,-17.75,-0.75,-2.01,76.33,0.786,-0.010,-0.016,0.618
4878608.000000,0.014,-0.032,1.007,0.01,-0.07,0.07,-21.52,-17.23,-17.75,-0.75,-2.01,76.33,0.786,-0.010,-0.016,0.618
4878618.000000,0.012,-0.035,1.006,-0.01,0.03,-0.09,-21.52,-17.23,-17.75,-0.75,-2.01,76.33,0.786,-0.010,-0.016,0.618
4878628.000000,0.011,-0.040,1.007,0.01,0.05,-0.01,-21.52,-17.23,-17.75,-0.75,-2.01,76.33,0.786,-0.010,-0.016,0.618
4878638.000000,0.014,-0.035,1.010,-0.05,0.12,0.03,-21.60,-17.73,-17.38,-0.75,-2.01,76.33,0.786,-0.010,-0.016,0.618
4878648.000000,0.012,-0.035,1.007,0.03,0.03,-0.07,-22.17,-17.33,-17.50,-0.74,-2.01,76.33,0.786,-0.010,-0.016,0.618
4878658.000000,0.012,-0.035,1.007,0.01,-0.03,0.03,-22.25,-17.96,-17.63,-0.74,-2.01,76.33,0.786,-0.010,-0.016,0.618
4878668.000000,0.014,-0.035,1.009,-0.07,0.12,0.01,-22.25,-17.60,-17.63,-0.74,-2.01,76.33,0.786,-0.010,-0.016,0.618
4878678.000000,0.012,-0.035,1.007,-0.05,-0.13,-0.01,-22.25,-17.50,-17.33,-0.74,-2.01,76.33,0.786,-0.010,-0.016,0.618
4878688.000000,0.014,-0.036,1.009,0.03,-0.05,-0.09,-21.42,-18.29,-17.54,-0.74,-2.01,76.33,0.786,-0.010,-0.016,0.618
4878698.000000,0.011,-0.034,1.005,-0.01,0.09,0.03,-21.33,-18.10,-17.46,-0.74,-2.01,76.33,0.786,-0.010,-0.016,0.618
4878708.000000,0.012,-0.036,1.009,-0.01,0.05,-0.01,-21.38,-17.92,-17.54,-0.74,-2.01,76.33,0.786,-0.010,-0.016,0.618
4878718.000000,0.014,-0.035,1.006,0.03,0.01,0.03,-21.38,-18.06,-17.79,-0.74,-2.01,76.33,0.786,-0.010,-0.016,0.618
4878728.000000,0.014,-0.036,1.006,-0.05,-0.07,-0.07,-21.29,-17.56,-17.58,-0.74,-2.01,76.33,0.786,-0.010,-0.016,0.618
4878738.000000,0.018,-0.032,1.006,0.03,-0.01,-0.01,-21.71,-17.73,-17.54,-0.74,-2.01,76.33,0.786,-0.010,-0.016,0.618
4878748.000000,0.014,-0.036,1.009,-0.01,-0.05,0.03,-21.98,-17.46,-17.54,-0.74,-2.01,76.33,0.786,-0.010,-0.016,0.618
4878758.000000,0.011,-0.035,1.009,-0.07,0.01,0.01,-21.83,-17.64,-17.54,-0.75,-2.01,76.33,0.786,-0.010,-0.016,0.618
4878768.000000,0.015,-0.036,1.011,-0.01,-0.01,0.01,-21.71,-17.33,-17.58,-0.75,-2.02,76.33,0.786,-0.010,-0.016,0.618
4878778.000000,0.012,-0.036,1.011,0.07,-0.01,-0.05,-22.25,-17.33,-17.58,-0.75,-2.02,76.33,0.786,-0.010,-0.016,0.618
4878788.000000,0.012,-0.035,1.010,-0.03,0.09,0.03,-22.06,-17.00,-17.63,-0.74,-2.02,76.33,0.786,-0.010,-0.016,0.618
4878798.000000,0.012,-0.036,1.012,-0.03,0.05,0.01,-22.29,-16.96,-17.50,-0.74,-2.02,76.33,0.786,-0.010,-0.016,0.618
4878808.000000,0.011,-0.036,1.010,0.03,0.05,-0.03,-22.39,-17.10,-17.63,-0.74,-2.02,76.33,0.786,-0.010,-0.016,0.618
4878818.000000,0.011,-0.032,1.010,-0.07,-0.03,0.01,-22.52,-17.46,-17.50,-0.74,-2.02,76.33,0.786,-0.010,-0.016,0.618
4878828.000000,0.012,-0.036,1.010,-0.01,0.07,0.01,-22.63,-17.33,-17.46,-0.74,-2.02,76.33,0.786,-0.010,-0.016,0.618
4878838.000000,0.015,-0.034,1.009,0.07,0.16,0.01,-22.29,-18.06,-17.79,-0.74,-2.02,76.33,0.786,-0.010,-0.016,0.618
4878848.000000,0.014,-0.034,1.009,0.05,-0.13,-0.05,-22.33,-17.96,-17.38,-0.74,-2.02,76.33,0.786,-0.010,-0.016,0.618
4878858.000000,0.012,-0.034,1.009,-0.03,0.12,0.03,-21.93,-17.88,-17.50,-0.74,-2.02,76.33,0.786,-0.010,-0.016,0.618
4878868.000000,0.012,-0.036,1.010,-0.07,-0.07,0.01,-22.17,-17.88,-17.63,-0.74,-2.02,76.33,0.786,-0.010,-0.016,0.618
4878878.000000,0.015,-0.036,1.006,-0.09,0.01,-0.03,-22.33,-18.18,-17.50,-0.74,-2.02,76.33,0.786,-0.010,-0.016,0.618
4878888.000000,0.012,-0.036,1.005,-0.05,-0.05,-0.01,-22.17,-17.46,-17.58,-0.74,-2.02,76.33,0.786,-0.010,-0.016,0.618
4878898.000000,0.015,-0.036,1.003,0.01,-0.05,0.05,-21.98,-17.77,-17.29,-0.74,-2.02,76.33,0.786,-0.010,-0.016,0.618
4878908.000000,0.016,-0.036,1.009,0.11,0.01,0.03,-22.06,-17.68,-17.54,-0.74,-2.02,76.33,0.786,-0.010,-0.016,0.618
4878918.000000,0.015,-0.035,1.007,-0.09,0.01,0.06,-21.93,-17.83,-17.58,-0.74,-2.02,76.33,0.786,-0.010,-0.016,0.618
4878928.000000,0.011,-0.034,1.007,-0.01,-0.01,-0.05,-21.88,-17.73,-17.54,-0.74,-2.02,76.33,0.786,-0.010,-0.016,0.618
4878938.000000,0.014,-0.036,1.007,0.11,0.12,-0.03,-21.83,-17.33,-17.67,-0.74,-2.02,76.33,0.786,-0.010,-0.016,0.618
4878948.000000,0.014,-0.036,1.009,0.03,-0.01,-0.05,-22.02,-17.56,-17.50,-0.74,-2.02,76.33,0.786,-0.010,-0.016,0.618
4878958.000000,0.014,-0.036,1.010,0.01,-0.01,0.01,-22.21,-17.60,-17.38,-0.74,-2.02,76.33,0.786,-0.010,-0.016,0.618
4878968.000000,0.014,-0.035,1.007,0.01,-0.01,-0.03,-22.43,-17.60,-17.38,-0.74,-2.02,76.33,0.786,-0.010,-0.016,0.618
4878978.000000,0.012,-0.038,1.010,0.01,0.07,0.05,-22.25,-17.60,-17.33,-0.74,-2.02,76.33,0.786,-0.010,-0.016,0.618
4878988.000000,0.014,-0.035,1.009,-0.01,0.05,-0.05,-22.52,-17.88,-17.58,-0.74,-2.02,76.33,0.786,-0.010,-0.016,0.618
4878998.000000,0.012,-0.038,1.007,-0.05,0.12,0.03,-22.29,-17.77,-17.38,-0.74,-2.02,76.33,0.786,-0.010,-0.016,0.618
4879008.000000,0.012,-0.035,1.007,-0.07,0.01,-0.05,-22.67,-17.60,-17.75,-0.74,-2.02,76.33,0.786,-0.010,-0.016,0.618
4879018.000000,0.014,-0.035,1.009,-0.07,0.09,0.10,-22.48,-17.83,-17.50,-0.74,-2.02,76.33,0.786,-0.010,-0.016,0.618
4879028.000000,0.012,-0.034,1.010,-0.01,-0.01,-0.05,-22.29,-17.64,-17.54,-0.74,-2.02,76.33,0.786,-0.010,-0.016,0.618
4879038.000000,0.012,-0.035,1.009,0.01,-0.05,0.03,-21.56,-17.38,-17.46,-0.74,-2.02,76.33,0.786,-0.010,-0.016,0.618
4879048.000000,0.015,-0.035,1.006,-0.01,0.03,-0.01,-22.06,-17.50,-17.67,-0.74,-2.02,76.33,0.786,-0.010,-0.016,0.618
4879058.000000,0.014,-0.034,1.010,0.01,0.07,-0.01,-21.64,-17.46,-17.92,-0.74,-2.02,76.33,0.786,-0.010,-0.016,0.618
4879068.000000,0.014,-0.034,1.005,0.13,-0.01,-0.03,-21.75,-17.46,-17.71,-0.74,-2.02,76.33,0.786,-0.010,-0.016,0.618
4879078.000000,0.014,-0.032,1.007,-0.01,0.09,0.10,-21.93,-17.60,-17.58,-0.74,-2.02,76.33,0.786,-0.010,-0.016,0.618
4879088.000000,0.012,-0.034,1.007,-0.05,0.16,0.01,-21.52,-18.10,-17.46,-0.74,-2.02,76.33,0.786,-0.010,-0.016,0.618
4879098.000000,0.012,-0.035,1.009,0.01,0.01,-0.07,-21.64,-18.23,-17.46,-0.74,-2.02,76.33,0.786,-0.010,-0.016,0.618
4879108.000000,0.011,-0.036,1.009,0.03,0.12,0.03,-21.48,-18.14,-17.38,-0.74,-2.02,76.33,0.786,-0.010,-0.016,0.618
4879118.000000,0.014,-0.036,1.010,0.03,-0.01,0.05,-21.48,-18.18,-17.33,-0.74,-2.02,76.33,0.786,-0.010,-0.016,0.618
4879128.000000,0.014,-0.036,1.009,0.01,0.03,-0.05,-21.71,-18.00,-17.54,-0.74,-2.02,76.33,0.786,-0.010,-0.016,0.618
4879138.000000,0.012,-0.035,1.007,0.05,-0.11,0.01,-21.52,-17.83,-17.50,-0.74,-2.02,76.33,0.786,-0.010,-0.016,0.618
4879148.000000,0.016,-0.036,1.011,0.03,0.03,-0.03,-21.29,-17.83,-17.79,-0.74,-2.02,76.33,0.786,-0.010,-0.016,0.618
4879158.000000,0.014,-0.035,1.003,-0.07,-0.11,-0.01,-21.42,-17.83,-17.63,-0.74,-2.02,76.33,0.786,-0.010,-0.016,0.618
4879168.000000,0.014,-0.036,1.009,0.03,0.05,0.05,-21.42,-17.38,-17.54,-0.74,-2.02,76.33,0.786,-0.010,-0.016,0.618
4879178.000000,0.011,-0.034,1.009,-0.03,-0.05,0.01,-21.52,-17.50,-17.83,-0.74,-2.02,76.33,0.786,-0.010,-0.016,0.618
4879188.000000,0.012,-0.036,1.002,-0.07,0.01,-0.05,-21.75,-17.92,-17.71,-0.74,-2.02,76.33,0.786,-0.010,-0.016,0.618
4879198.000000,0.012,-0.036,1.012,-0.03,0.01,0.10,-21.93,-18.38,-17.63,-0.74,-2.02,76.33,0.786,-0.010,-0.016,0.618
4879208.000000,0.010,-0.034,1.007,-0.05,-0.07,0.01,-21.42,-17.92,-17.63,-0.74,-2.02,76.33,0.786,-0.010,-0.016,0.618
4879218.000000,0.012,-0.035,1.007,0.05,-0.05,0.05,-21.64,-18.29,-17.63,-0.74,-2.02,76.33,0.786,-0.010,-0.016,0.618
4879228.000000,0.012,-0.036,1.010,-0.01,-0.01,-0.03,-22.25,-17.64,-17.58,-0.74,-2.02,76.33,0.786,-0.010,-0.016,0.618
4879238.000000,0.014,-0.034,1.006,-0.07,-0.01,-0.03,-22.29,-17.56,-17.63,-0.74,-2.02,76.33,0.786,-0.010,-0.016,0.618
4879248.000000,0.011,-0.036,1.014,0.01,0.05,-0.03,-22.25,-17.56,-17.21,-0.74,-2.02,76.33,0.786,-0.010,-0.016,0.618
4879258.000000,0.012,-0.036,1.009,0.05,0.01,0.01,-22.25,-17.83,-17.25,-0.74,-2.02,76.33,0.786,-0.010,-0.016,0.618
4879268.000000,0.015,-0.035,1.012,0.01,-0.09,0.03,-22.25,-17.56,-17.50,-0.74,-2.02,76.33,0.786,-0.010,-0.016,0.618
4879278.000000,0.015,-0.034,1.009,-0.09,-0.01,-0.05,-22.21,-17.38,-17.58,-0.74,-2.02,76.33,0.786,-0.010,-0.016,0.618
4879288.000000,0.012,-0.034,1.010,0.03,0.07,-0.01,-22.25,-17.50,-17.54,-0.74,-2.02,76.33,0.786,-0.010,-0.016,0.618
4879298.000000,0.014,-0.034,1.007,0.05,0.09,-0.01,-22.10,-17.42,-17.54,-0.74,-2.02,76.33,0.786,-0.010,-0.016,0.618
4879308.000000,0.015,-0.035,1.007,0.07,0.03,0.05,-22.10,-17.18,-17.79,-0.74,-2.02,76.33,0.786,-0.010,-0.016,0.618
4879318.000000,0.014,-0.034,1.009,-0.03,0.05,-0.05,-22.29,-17.46,-17.38,-0.74,-2.02,76.33,0.786,-0.010,-0.016,0.618
4879328.000000,0.015,-0.034,1.010,-0.01,-0.03,0.01,-22.33,-17.18,-17.67,-0.74,-2.02,76.33,0.786,-0.010,-0.016,0.618
4879338.000000,0.014,-0.035,1.010,-0.03,0.03,-0.09,-21.75,-17.68,-17.79,-0.74,-2.02,76.33,0.786,-0.010,-0.016,0.618
4879348.000000,0.014,-0.036,1.009,0.01,-0.07,0.01,-22.29,-17.64,-17.46,-0.74,-2.02,76.33,0.786,-0.010,-0.016,0.618
4879358.000000,0.014,-0.038,1.011,0.03,0.01,0.01,-22.25,-17.42,-17.58,-0.74,-2.02,76.33,0.786,-0.010,-0.016,0.618
4879368.000000,0.014,-0.035,1.010,-0.01,0.07,0.01,-22.25,-17.46,-17.83,-0.74,-2.02,76.33,0.786,-0.010,-0.016,0.618
4879378.000000,0.015,-0.032,1.009,0.05,0.07,0.05,-22.02,-17.77,-17.58,-0.74,-2.02,76.33,0.786,-0.010,-0.016,0.618
4879388.000000,0.012,-0.036,1.007,-0.01,-0.01,0.05,-21.48,-17.50,-17.71,-0.74,-2.02,76.33,0.786,-0.010,-0.016,0.618
4879398.000000,0.015,-0.038,1.006,0.09,0.12,0.01,-21.52,-17.27,-17.38,-0.74,-2.02,76.33,0.786,-0.010,-0.016,0.618
4879408.000000,0.012,-0.032,1.007,-0.09,0.07,0.04,-21.60,-17.77,-17.46,-0.74,-2.02,76.33,0.786,-0.010,-0.016,0.618
4879418.000000,0.010,-0.035,1.010,0.03,-0.07,-0.11,-21.83,-17.92,-17.58,-0.74,-2.02,76.33,0.786,-0.010,-0.016,0.618
4879428.000000,0.012,-0.032,1.010,-0.05,-0.01,-0.05,-21.88,-17.64,-17.83,-0.74,-2.02,76.33,0.786,-0.010,-0.016,0.618
4879438.000000,0.012,-0.035,1.009,-0.01,0.01,-0.07,-21.93,-17.77,-17.75,-0.74,-2.02,76.33,0.786,-0.010,-0.016,0.618
4879448.000000,0.012,-0.036,1.006,0.01,0.09,0.05,-22.06,-17.60,-18.25,-0.74,-2.02,76.33,0.786,-0.010,-0.016,0.618
4879458.000000,0.016,-0.035,1.006,0.03,-0.05,-0.03,-21.98,-17.50,-18.00,-0.74,-2.02,76.33,0.786,-0.010,-0.016,0.618
4879468.000000,0.011,-0.038,1.009,0.03,-0.05,0.03,-21.83,-17.18,-17.71,-0.74,-2.02,76.33,0.786,-0.010,-0.016,0.618
4879478.000000,0.016,-0.034,1.006,-0.05,-0.01,0.06,-22.02,-17.56,-17.63,-0.74,-2.02,76.33,0.786,-0.010,-0.016,0.618
4879488.000000,0.012,-0.036,1.006,-0.03,0.03,0.03,-21.33,-17.42,-17.54,-0.74,-2.03,76.33,0.786,-0.010,-0.016,0.618
4879498.000000,0.011,-0.032,1.007,-0.05,-0.05,-0.03,-21.18,-17.83,-17.54,-0.74,-2.03,76.33,0.786,-0.010,-0.016,0.618
4879508.000000,0.012,-0.036,1.006,0.01,0.03,0.03,-21.48,-17.77,-17.46,-0.74,-2.03,76.33,0.786,-0.010,-0.016,0.618
4879518.000000,0.015,-0.032,1.009,-0.05,-0.05,0.01,-21.18,-17.68,-17.71,-0.74,-2.03,76.33,0.786,-0.010,-0.016,0.618
4879528.000000,0.014,-0.035,1.005,-0.01,-0.01,-0.09,-21.29,-18.18,-17.79,-0.74,-2.03,76.33,0.786,-0.010,-0.016,0.618
4879538.000000,0.014,-0.035,1.010,0.05,0.22,0.01,-21.56,-17.56,-17.58,-0.74,-2.03,76.33,0.786,-0.010,-0.016,0.618
4879548.000000,0.011,-0.036,1.009,-0.01,-0.05,0.01,-21.79,-17.50,-17.25,-0.74,-2.03,76.33,0.786,-0.010,-0.016,0.618
4879558.000000,0.014,-0.036,1.007,0.05,0.03,0.01,-21.75,-17.56,-17.46,-0.74,-2.03,76.33,0.786,-0.010,-0.016,0.618
4879568.000000,0.014,-0.034,1.010,0.01,0.05,-0.07,-21.71,-17.77,-17.42,-0.74,-2.03,76.33,0.786,-0.010,-0.016,0.618
4879578.000000,0.014,-0.035,1.011,-0.03,0.07,0.01,-21.93,-17.64,-17.46,-0.74,-2.03,76.33,0.786,-0.010,-0.016,0.618
4879588.000000,0.014,-0.038,1.003,0.07,0.09,0.01,-21.79,-16.88,-17.71,-0.74,-2.03,76.33,0.786,-0.010,-0.016,0.618
4879598.000000,0.014,-0.036,1.007,0.03,-0.05,-0.03,-21.88,-17.27,-17.50,-0.73,-2.03,76.33,0.786,-0.010,-0.016,0.618
4879608.000000,0.012,-0.034,0.999,-0.07,-0.15,0.01,-21.52,-17.33,-17.21,-0.74,-2.03,76.33,0.786,-0.010,-0.016,0.618
4879618.000000,0.015,-0.038,1.006,-0.09,-0.05,-0.01,-21.52,-17.33,-17.21,-0.74,-2.03,76.33,0.786,-0.010,-0.016,0.618
4879628.000000,0.012,-0.035,1.009,0.01,-0.01,-0.03,-21.38,-17.10,-17.67,-0.74,-2.03,76.33,0.786,-0.010,-0.016,0.618
4879638.000000,0.010,-0.034,1.002,0.03,0.05,-0.03,-21.18,-17.77,-17.58,-0.74,-2.03,76.33,0.786,-0.010,-0.016,0.618
4879648.000000,0.014,-0.035,1.010,-0.01,-0.01,0.10,-21.25,-17.64,-17.46,-0.74,-2.03,76.33,0.786,-0.010,-0.016,0.618
4879658.000000,0.018,-0.035,1.010,0.03,0.12,0.01,-21.10,-17.88,-17.38,-0.74,-2.03,76.33,0.786,-0.010,-0.016,0.618
4879668.000000,0.012,-0.031,1.006,-0.07,0.07,-0.01,-21.06,-17.88,-17.83,-0.74,-2.03,76.33,0.786,-0.010,-0.016,0.618
4879678.000000,0.016,-0.035,1.009,0.03,0.12,-0.05,-21.10,-17.73,-17.25,-0.74,-2.03,76.33,0.786,-0.010,-0.016,0.618
4879688.000000,0.011,-0.035,1.010,0.09,-0.05,-0.01,-21.93,-17.46,-17.67,-0.73,-2.03,76.33,0.786,-0.010,-0.016,0.618
4879698.000000,0.014,-0.034,1.006,0.01,0.01,-0.07,-22.06,-17.33,-17.58,-0.73,-2.03,76.33,0.786,-0.010,-0.016,0.618
4879708.000000,0.011,-0.032,1.009,0.05,-0.05,-0.07,-21.88,-17.23,-17.38,-0.73,-2.03,76.33,0.786,-0.010,-0.016,0.618
4879718.000000,0.010,-0.034,1.007,0.07,0.07,0.07,-22.29,-17.56,-17.58,-0.73,-2.03,76.33,0.786,-0.010,-0.016,0.618
4879728.000000,0.011,-0.035,1.007,0.09,0.07,0.05,-21.98,-17.18,-17.67,-0.73,-2.03,76.33,0.786,-0.010,-0.016,0.618
4879738.000000,0.015,-0.035,1.007,0.01,0.16,0.01,-22.02,-17.60,-17.75,-0.73,-2.03,76.33,0.786,-0.010,-0.016,0.618
4879748.000000,0.015,-0.034,1.007,0.05,0.05,0.03,-22.17,-17.64,-17.58,-0.73,-2.03,76.33,0.786,-0.010,-0.016,0.618
4879758.000000,0.012,-0.036,1.012,0.07,-0.03,0.01,-22.33,-17.92,-17.71,-0.73,-2.03,76.33,0.786,-0.010,-0.016,0.618
4879768.000000,0.014,-0.035,1.009,0.07,0.07,0.05,-22.29,-18.10,-17.42,-0.73,-2.03,76.33,0.786,-0.010,-0.016,0.618
4879778.000000,0.014,-0.035,1.011,0.03,0.03,0.05,-22.25,-18.00,-17.92,-0.73,-2.03,76.33,0.786,-0.010,-0.016,0.618
4879788.000000,0.010,-0.035,1.013,0.05,0.01,-0.03,-21.93,-17.56,-17.63,-0.73,-2.03,76.33,0.786,-0.010,-0.016,0.618
4879798.000000,0.014,-0.038,1.006,-0.03,-0.05,-0.05,-22.21,-17.56,-17.33,-0.73,-2.03,76.33,0.786,-0.010,-0.016,0.618
4879808.000000,0.010,-0.039,1.009,-0.09,-0.01,-0.01,-22.21,-17.33,-17.25,-0.73,-2.03,76.33,0.786,-0.010,-0.016,0.618
4879818.000000,0.014,-0.034,1.006,-0.03,0.09,-0.07,-22.02,-17.42,-17.25,-0.73,-2.03,76.33,0.786,-0.010,-0.016,0.618
4879828.000000,0.014,-0.036,1.006,-0.01,0.07,-0.07,-22.33,-17.38,-17.33,-0.73,-2.03,76.33,0.786,-0.010,-0.016,0.618
4879838.000000,0.015,-0.034,1.006,-0.05,-0.03,0.01,-21.79,-17.23,-17.67,-0.73,-2.03,76.33,0.786,-0.010,-0.016,0.618
4879848.000000,0.014,-0.035,1.005,0.07,0.03,0.05,-22.02,-17.27,-17.50,-0.73,-2.03,76.33,0.786,-0.010,-0.016,0.618
4879858.000000,0.011,-0.035,1.007,-0.05,-0.05,0.03,-22.43,-17.38,-17.38,-0.73,-2.03,76.33,0.786,-0.010,-0.016,0.618
4879868.000000,0.014,-0.035,1.011,-0.05,-0.05,-0.01,-22.06,-17.23,-17.50,-0.73,-2.03,76.33,0.786,-0.010,-0.016,0.618
4879878.000000,0.014,-0.038,1.009,-0.01,0.09,0.01,-22.17,-17.10,-17.46,-0.73,-2.03,76.33,0.786,-0.010,-0.016,0.618
4879888.000000,0.011,-0.035,1.006,0.03,0.09,0.08,-22.52,-16.81,-17.58,-0.73,-2.03,76.33,0.786,-0.010,-0.016,0.618
4879898.000000,0.015,-0.035,1.007,0.05,-0.03,0.03,-22.67,-16.35,-17.58,-0.73,-2.03,76.33,0.786,-0.010,-0.016,0.618
4879908.000000,0.010,-0.035,1.014,-0.07,-0.11,-0.03,-22.71,-16.81,-17.54,-0.73,-2.03,76.33,0.786,-0.010,-0.016,0.618
4879918.000000,0.014,-0.036,1.009,-0.01,0.16,-0.07,-22.79,-16.64,-17.54,-0.73,-2.03,76.33,0.786,-0.010,-0.016,0.618
4879928.000000,0.015,-0.036,1.010,-0.01,0.05,-0.03,-22.89,-16.58,-17.63,-0.73,-2.03,76.33,0.786,-0.010,-0.016,0.618
4879938.000000,0.011,-0.035,1.010,-0.03,0.12,0.06,-21.98,-17.46,-17.58,-0.73,-2.03,76.33,0.786,-0.010,-0.016,0.618
4879948.000000,0.014,-0.035,1.006,0.03,0.05,0.03,-22.25,-17.50,-17.46,-0.73,-2.03,76.33,0.786,-0.010,-0.016,0.618
4879958.000000,0.012,-0.032,1.010,-0.01,0.07,0.01,-22.43,-17.60,-17.17,-0.73,-2.03,76.33,0.786,-0.010,-0.016,0.618
4879968.000000,0.018,-0.035,1.007,-0.01,-0.09,-0.03,-21.88,-17.42,-17.50,-0.73,-2.03,76.33,0.786,-0.010,-0.016,0.618
4879978.000000,0.015,-0.036,1.007,0.05,-0.01,0.01,-21.88,-17.64,-17.58,-0.73,-2.03,76.33,0.786,-0.010,-0.016,0.618
4879988.000000,0.012,-0.034,1.011,0.03,-0.11,-0.05,-21.60,-17.33,-17.33,-0.73,-2.03,76.33,0.786,-0.010,-0.016,0.618
4879998.000000,0.015,-0.036,1.007,-0.09,0.05,-0.01,-21.75,-17.27,-17.38,-0.73,-2.03,76.33,0.786,-0.010,-0.016,0.618
4880008.000000,0.016,-0.036,1.006,-0.03,0.07,-0.01,-21.75,-17.42,-17.13,-0.73,-2.03,76.33,0.786,-0.010,-0.016,0.618
4880018.000000,0.014,-0.038,1.010,0.01,0.07,0.03,-21.64,-17.33,-17.29,-0.73,-2.03,76.33,0.786,-0.010,-0.016,0.618
4880028.000000,0.014,-0.038,1.009,0.03,-0.07,0.03,-21.52,-17.10,-17.71,-0.73,-2.03,76.33,0.786,-0.010,-0.016,0.618
4880038.000000,0.014,-0.038,1.007,0.07,0.09,0.03,-21.75,-17.56,-17.38,-0.73,-2.03,76.33,0.786,-0.010,-0.016,0.618
4880048.000000,0.012,-0.036,1.010,-0.13,0.05,0.08,-21.38,-17.92,-17.96,-0.73,-2.03,76.33,0.786,-0.010,-0.016,0.618
4880058.000000,0.012,-0.036,1.010,0.07,0.09,-0.07,-21.56,-18.18,-17.58,-0.73,-2.03,76.33,0.786,-0.010,-0.016,0.618
4880068.000000,0.012,-0.034,1.010,-0.07,-0.07,-0.03,-21.52,-17.23,-17.58,-0.73,-2.03,76.33,0.786,-0.010,-0.016,0.618
4880078.000000,0.014,-0.034,1.009,-0.11,-0.03,0.04,-21.38,-18.00,-17.50,-0.73,-2.03,76.33,0.786,-0.010,-0.016,0.618
4880088.000000,0.011,-0.036,1.005,0.09,0.12,0.01,-21.48,-17.77,-17.54,-0.73,-2.03,76.33,0.786,-0.010,-0.016,0.618
4880098.000000,0.014,-0.034,1.009,0.05,-0.03,-0.03,-21.83,-17.92,-17.67,-0.73,-2.03,76.33,0.786,-0.010,-0.016,0.618
4880108.000000,0.012,-0.036,1.012,-0.03,0.09,-0.03,-21.42,-17.77,-17.58,-0.73,-2.03,76.33,0.786,-0.010,-0.016,0.618
4880118.000000,0.016,-0.036,1.005,0.01,-0.05,0.05,-21.75,-18.18,-17.38,-0.72,-2.03,76.33,0.786,-0.010,-0.016,0.618
4880128.000000,0.011,-0.036,1.007,-0.01,-0.09,-0.13,-21.29,-17.64,-17.58,-0.72,-2.03,76.33,0.786,-0.010,-0.016,0.618
4880138.000000,0.015,-0.034,1.007,0.07,-0.07,0.01,-21.29,-17.64,-17.58,-0.73,-2.03,76.33,0.786,-0.010,-0.016,0.618
4880148.000000,0.012,-0.038,1.009,0.03,0.03,0.03,-21.60,-18.56,-17.25,-0.73,-2.03,76.33,0.786,-0.010,-0.016,0.618
4880158.000000,0.014,-0.034,1.006,0.05,0.07,-0.07,-21.75,-18.56,-17.50,-0.73,-2.03,76.33,0.786,-0.010,-0.016,0.618
4880168.000000,0.011,-0.035,1.007,0.01,0.05,0.12,-21.29,-18.60,-17.21,-0.73,-2.03,76.33,0.786,-0.010,-0.016,0.618
4880178.000000,0.014,-0.035,1.005,-0.03,-0.03,-0.09,-21.48,-18.10,-17.21,-0.73,-2.03,76.33,0.786,-0.010,-0.016,0.618
4880188.000000,0.011,-0.036,1.007,-0.01,0.01,-0.03,-21.48,-18.10,-17.21,-0.73,-2.03,76.33,0.786,-0.010,-0.016,0.618
4880198.000000,0.015,-0.034,1.010,0.03,0.12,0.08,-21.18,-17.27,-17.58,-0.73,-2.03,76.33,0.786,-0.010,-0.016,0.618
4880208.000000,0.012,-0.034,1.006,0.09,0.20,0.01,-21.83,-17.14,-17.33,-0.73,-2.03,76.33,0.786,-0.010,-0.016,0.618
4880218.000000,0.015,-0.034,1.006,-0.03,0.14,-0.07,-21.60,-17.46,-17.46,-0.72,-2.03,76.33,0.786,-0.010,-0.016,0.618
4880228.000000,0.014,-0.032,1.009,0.01,0.09,-0.01,-21.60,-17.33,-17.21,-0.72,-2.03,76.33,0.786,-0.010,-0.016,0.618
4880238.000000,0.014,-0.036,1.009,-0.15,0.09,0.04,-21.60,-17.33,-17.21,-0.72,-2.03,76.33,0.786,-0.010,-0.016,0.618
4880248.000000,0.014,-0.034,1.009,0.07,0.12,-0.03,-21.75,-17.50,-17.46,-0.72,-2.03,76.33,0.786,-0.010,-0.016,0.618
4880258.000000,0.015,-0.036,1.006,0.03,-0.03,0.05,-21.71,-17.38,-17.71,-0.72,-2.03,76.33,0.786,-0.010,-0.016,0.618
4880268.000000,0.012,-0.035,1.005,-0.05,-0.01,-0.07,-22.02,-17.18,-17.67,-0.72,-2.03,76.33,0.786,-0.010,-0.016,0.618
4880278.000000,0.014,-0.036,1.006,-0.01,-0.03,0.01,-22.10,-17.27,-17.75,-0.72,-2.03,76.33,0.786,-0.010,-0.016,0.618
4880288.000000,0.012,-0.035,1.007,0.01,-0.07,-0.03,-22.10,-17.27,-17.75,-0.72,-2.03,76.33,0.786,-0.010,-0.016,0.618
4880298.000000,0.012,-0.035,1.010,-0.05,-0.03,-0.03,-21.98,-17.56,-17.25,-0.72,-2.03,76.33,0.786,-0.010,-0.016,0.618
4880308.000000,0.014,-0.035,1.003,0.05,0.09,0.03,-22.39,-17.50,-17.25,-0.72,-2.03,76.33,0.786,-0.010,-0.016,0.618
4880318.000000,0.012,-0.035,1.010,0.03,-0.01,0.05,-22.10,-17.83,-17.54,-0.72,-2.03,76.33,0.786,-0.010,-0.016,0.618
4880328.000000,0.012,-0.036,1.010,0.03,0.14,0.01,-22.10,-17.73,-17.13,-0.72,-2.03,76.33,0.786,-0.010,-0.016,0.618
4880338.000000,0.012,-0.034,1.009,-0.05,0.05,-0.07,-22.10,-17.73,-17.13,-0.72,-2.03,76.33,0.786,-0.010,-0.016,0.618
4880348.000000,0.015,-0.036,1.007,0.05,0.03,0.03,-21.71,-17.33,-17.92,-0.72,-2.03,76.33,0.786,-0.010,-0.016,0.618
4880358.000000,0.014,-0.035,1.009,-0.03,0.03,0.03,-21.52,-17.96,-17.63,-0.72,-2.03,76.33,0.786,-0.010,-0.016,0.618
4880368.000000,0.015,-0.035,1.007,-0.01,0.07,0.01,-21.52,-17.73,-17.63,-0.72,-2.03,76.33,0.786,-0.010,-0.016,0.618
4880378.000000,0.014,-0.036,1.011,0.07,0.12,0.03,-21.71,-17.60,-17.96,-0.72,-2.03,76.33,0.786,-0.010,-0.016,0.618
4880388.000000,0.014,-0.034,1.011,0.07,-0.01,0.01,-21.71,-17.60,-17.96,-0.72,-2.03,76.33,0.786,-0.010,-0.016,0.618
4880398.000000,0.011,-0.035,1.009,0.01,0.09,0.01,-22.33,-17.27,-17.71,-0.72,-2.03,76.33,0.786,-0.010,-0.016,0.618
4880408.000000,0.016,-0.035,1.006,0.01,0.05,-0.05,-22.29,-17.23,-17.88,-0.72,-2.03,76.33,0.786,-0.010,-0.016,0.618
4880418.000000,0.016,-0.034,1.006,-0.01,0.03,0.08,-22.43,-17.46,-17.92,-0.72,-2.03,76.33,0.786,-0.010,-0.016,0.618
4880428.000000,0.015,-0.034,1.010,-0.01,0.03,-0.07,-22.43,-17.42,-17.96,-0.72,-2.03,76.33,0.786,-0.010,-0.016,0.618
4880438.000000,0.014,-0.035,1.010,0.11,0.07,0.03,-22.43,-17.42,-17.96,-0.72,-2.03,76.33,0.786,-0.010,-0.016,0.618
4880448.000000,0.014,-0.035,1.012,-0.01,-0.03,-0.01,-21.29,-17.77,-17.42,-0.72,-2.03,76.33,0.786,-0.010,-0.016,0.618
4880458.000000,0.012,-0.035,1.006,0.01,0.07,-0.01,-21.52,-17.14,-17.46,-0.72,-2.03,76.33,0.786,-0.010,-0.016,0.618
4880468.000000,0.014,-0.035,1.006,-0.09,0.14,0.06,-21.71,-17.33,-17.67,-0.72,-2.03,76.33,0.786,-0.010,-0.016,0.618
4880478.000000,0.014,-0.032,1.005,0.01,-0.03,-0.05,-21.18,-17.27,-17.54,-0.72,-2.03,76.33,0.786,-0.010,-0.016,0.618
4880488.000000,0.015,-0.036,1.007,-0.01,0.14,-0.05,-21.18,-17.27,-17.54,-0.72,-2.03,76.33,0.786,-0.010,-0.016,0.618
4880498.000000,0.015,-0.034,1.006,0.03,-0.03,-0.05,-21.64,-18.00,-17.71,-0.72,-2.03,76.33,0.786,-0.010,-0.016,0.618
4880508.000000,0.015,-0.035,1.007,-0.03,0.05,-0.01,-21.64,-18.00,-17.71,-0.72,-2.03,76.33,0.786,-0.010,-0.016,0.618
4880518.000000,0.012,-0.034,1.009,0.03,0.07,0.01,-21.64,-18.00,-17.71,-0.72,-2.03,76.33,0.786,-0.010,-0.016,0.618
4880528.000000,0.012,-0.035,1.006,-0.03,-0.05,-0.01,-21.64,-18.00,-17.71,-0.72,-2.03,76.33,0.786,-0.010,-0.016,0.618
4880538.000000,0.012,-0.034,1.009,-0.03,0.01,-0.01,-21.64,-18.00,-17.71,-0.72,-2.03,76.33,0.786,-0.010,-0.016,0.618
4880548.000000,0.015,-0.034,1.009,0.03,0.03,0.16,-21.42,-17.68,-17.83,-0.72,-2.03,76.33,0.786,-0.010,-0.016,0.618
4880558.000000,0.014,-0.036,1.007,0.15,0.07,-0.03,-21.25,-18.00,-17.33,-0.72,-2.03,76.33,0.786,-0.010,-0.016,0.618
4880568.000000,0.012,-0.035,1.010,-0.05,0.09,0.03,-21.29,-17.77,-17.83,-0.72,-2.03,76.33,0.786,-0.010,-0.016,0.618
4880578.000000,0.015,-0.034,1.011,0.03,-0.05,0.01,-21.71,-18.06,-17.75,-0.71,-2.03,76.33,0.786,-0.010,-0.016,0.618
4880588.000000,0.014,-0.036,1.010,-0.01,0.05,-0.07,-21.10,-17.77,-18.00,-0.72,-2.03,76.33,0.786,-0.010,-0.016,0.618
4880598.000000,0.014,-0.034,1.010,0.07,0.14,-0.03,-21.52,-17.73,-17.54,-0.72,-2.03,76.33,0.786,-0.010,-0.016,0.618
4880608.000000,0.011,-0.034,1.009,-0.03,0.03,-0.05,-21.18,-17.64,-17.54,-0.72,-2.03,76.33,0.786,-0.010,-0.016,0.618
4880618.000000,0.012,-0.032,1.006,-0.01,-0.05,0.01,-21.38,-17.60,-17.63,-0.71,-2.03,76.33,0.786,-0.010,-0.016,0.618
4880628.000000,0.012,-0.036,1.007,0.03,-0.01,-0.03,-21.48,-17.68,-17.75,-0.72,-2.03,76.33,0.786,-0.010,-0.016,0.618
4880638.000000,0.016,-0.034,1.005,0.05,0.01,-0.09,-21.42,-17.68,-17.54,-0.72,-2.03,76.33,0.786,-0.010,-0.016,0.618
4880648.000000,0.012,-0.035,1.006,0.09,-0.09,0.05,-21.42,-17.83,-17.50,-0.72,-2.03,76.33,0.786,-0.010,-0.016,0.618
4880658.000000,0.011,-0.035,1.010,0.05,0.03,0.05,-21.25,-17.73,-17.38,-0.72,-2.03,76.33,0.786,-0.010,-0.016,0.618
4880668.000000,0.012,-0.032,1.007,0.05,0.12,0.07,-21.29,-17.77,-17.71,-0.72,-2.03,76.33,0.786,-0.010,-0.016,0.618
4880678.000000,0.012,-0.035,1.009,0.05,0.03,0.01,-21.48,-17.60,-17.29,-0.72,-2.03,76.33,0.786,-0.010,-0.016,0.618
4880688.000000,0.014,-0.036,1.005,0.01,0.01,-0.05,-21.48,-17.33,-17.42,-0.72,-2.03,76.33,0.786,-0.010,-0.016,0.618
4880698.000000,0.016,-0.035,1.010,0.05,0.03,0.07,-21.56,-18.10,-17.54,-0.72,-2.03,76.33,0.786,-0.010,-0.016,0.618
4880708.000000,0.014,-0.034,1.006,-0.05,0.03,0.06,-21.18,-18.06,-17.58,-0.72,-2.03,76.33,0.786,-0.010,-0.016,0.618
4880718.000000,0.012,-0.035,1.012,0.07,-0.07,-0.03,-20.92,-17.96,-17.42,-0.72,-2.03,76.33,0.786,-0.010,-0.016,0.618
4880729.000000,0.012,-0.035,1.009,-0.07,0.05,-0.01,-21.33,-18.23,-17.50,-0.72,-2.03,76.33,0.786,-0.010,-0.016,0.618
4880739.000000,0.015,-0.035,1.005,-0.03,-0.05,-0.03,-21.10,-18.00,-17.67,-0.72,-2.03,76.33,0.786,-0.010,-0.016,0.618
4880749.000000,0.012,-0.035,1.011,0.07,-0.01,-0.05,-22.56,-17.38,-17.79,-0.72,-2.03,76.33,0.786,-0.010,-0.016,0.618
4880759.000000,0.015,-0.034,1.005,0.03,0.03,-0.03,-22.02,-17.77,-18.13,-0.72,-2.03,76.33,0.786,-0.010,-0.016,0.618
4880769.000000,0.014,-0.036,1.007,0.01,0.05,-0.01,-22.33,-18.10,-17.75,-0.72,-2.03,76.33,0.786,-0.010,-0.016,0.618
4880779.000000,0.015,-0.036,1.009,-0.01,0.01,0.12,-22.33,-17.83,-17.79,-0.72,-2.03,76.33,0.786,-0.010,-0.016,0.618
4880789.000000,0.016,-0.036,1.011,-0.01,0.05,0.01,-22.17,-17.88,-17.96,-0.72,-2.03,76.33,0.786,-0.010,-0.016,0.618
4880799.000000,0.012,-0.035,1.011,-0.09,0.05,0.10,-21.79,-17.04,-17.63,-0.72,-2.03,76.33,0.786,-0.010,-0.016,0.618
4880809.000000,0.014,-0.034,1.009,-0.03,0.14,-0.07,-21.79,-16.81,-17.75,-0.72,-2.03,76.33,0.786,-0.010,-0.016,0.618
4880819.000000,0.014,-0.036,1.010,-0.03,-0.09,-0.05,-22.48,-17.10,-17.79,-0.72,-2.03,76.33,0.786,-0.010,-0.016,0.618
4880829.000000,0.014,-0.035,1.007,-0.01,0.01,-0.01,-22.39,-16.73,-17.88,-0.72,-2.03,76.33,0.786,-0.010,-0.016,0.618
4880839.000000,0.014,-0.034,1.009,-0.07,-0.03,-0.01,-22.25,-17.00,-17.88,-0.72,-2.03,76.33,0.786,-0.010,-0.016,0.618
4880849.000000,0.015,-0.034,1.007,-0.03,0.14,-0.07,-21.93,-17.77,-17.71,-0.72,-2.03,76.33,0.786,-0.010,-0.016,0.618
4880859.000000,0.015,-0.035,1.011,-0.03,0.07,-0.03,-22.17,-17.27,-17.71,-0.72,-2.03,76.33,0.786,-0.010,-0.016,0.618
4880869.000000,0.012,-0.036,1.011,0.05,0.12,0.03,-22.02,-17.68,-17.63,-0.72,-2.03,76.33,0.786,-0.010,-0.016,0.618
4880879.000000,0.015,-0.034,1.007,0.01,0.12,-0.01,-22.10,-17.92,-17.63,-0.72,-2.03,76.33,0.786,-0.010,-0.016,0.618
4880889.000000,0.012,-0.036,1.007,0.07,-0.01,-0.03,-21.93,-17.73,-17.46,-0.71,-2.03,76.33,0.786,-0.010,-0.016,0.618
4880899.000000,0.012,-0.035,1.007,-0.05,0.05,-0.03,-21.83,-17.77,-17.42,-0.71,-2.03,76.33,0.786,-0.010,-0.016,0.618
4880909.000000,0.015,-0.035,1.010,0.11,0.07,0.03,-21.79,-17.96,-17.63,-0.71,-2.03,76.33,0.786,-0.010,-0.016,0.618
4880919.000000,0.012,-0.035,1.007,0.05,0.14,0.01,-21.71,-17.42,-17.29,-0.71,-2.03,76.33,0.786,-0.010,-0.016,0.618
4880929.000000,0.014,-0.031,1.007,-0.03,-0.01,0.01,-22.06,-18.29,-17.50,-0.71,-2.03,76.33,0.786,-0.010,-0.016,0.618
4880939.000000,0.011,-0.034,1.007,-0.05,-0.11,-0.03,-21.71,-17.96,-17.58,-0.71,-2.03,76.33,0.786,-0.010,-0.016,0.618
4880949.000000,0.012,-0.034,1.010,0.03,0.07,-0.03,-21.75,-18.00,-17.67,-0.71,-2.03,76.33,0.786,-0.010,-0.016,0.618
4880959.000000,0.015,-0.035,1.003,0.07,-0.03,-0.07,-21.88,-18.14,-17.46,-0.71,-2.03,76.33,0.786,-0.010,-0.016,0.618
4880969.000000,0.014,-0.036,1.010,0.01,-0.01,-0.05,-22.25,-18.10,-17.67,-0.71,-2.03,76.33,0.786,-0.010,-0.016,0.618
4880979.000000,0.016,-0.035,1.012,0.05,-0.11,0.01,-22.21,-17.92,-17.67,-0.71,-2.03,76.33,0.786,-0.010,-0.016,0.618
4880989.000000,0.015,-0.032,1.007,0.07,0.12,-0.05,-21.88,-17.83,-17.46,-0.71,-2.03,76.33,0.786,-0.010,-0.016,0.618
4880999.000000,0.016,-0.034,1.007,-0.03,-0.01,0.05,-21.71,-17.83,-17.67,-0.71,-2.03,76.33,0.786,-0.010,-0.016,0.618
4881009.000000,0.014,-0.035,1.010,-0.05,0.01,-0.03,-21.75,-17.96,-17.63,-0.71,-2.03,76.33,0.786,-0.010,-0.016,0.618
4881019.000000,0.014,-0.036,1.012,0.07,0.01,-0.11,-21.71,-17.83,-17.29,-0.71,-2.03,76.33,0.786,-0.010,-0.016,0.618
4881029.000000,0.012,-0.035,1.005,0.01,0.01,-0.03,-21.56,-17.50,-17.33,-0.71,-2.03,76.33,0.786,-0.010,-0.016,0.618
4881039.000000,0.015,-0.036,1.009,0.07,0.12,0.07,-21.79,-17.96,-17.79,-0.71,-2.03,76.33,0.786,-0.010,-0.016,0.618
4881049.000000,0.014,-0.034,1.006,-0.05,0.01,0.10,-22.06,-17.83,-17.42,-0.71,-2.03,76.33,0.786,-0.010,-0.016,0.618
4881059.000000,0.014,-0.032,1.009,-0.01,-0.05,-0.07,-22.39,-17.27,-17.42,-0.71,-2.03,76.33,0.786,-0.010,-0.016,0.618
4881069.000000,0.016,-0.035,1.006,0.01,0.03,-0.03,-21.98,-17.77,-17.71,-0.71,-2.03,76.33,0.786,-0.010,-0.016,0.618
4881079.000000,0.015,-0.036,1.007,0.03,0.05,-0.07,-22.02,-17.46,-17.71,-0.71,-2.03,76.33,0.786,-0.010,-0.016,0.618
4881089.000000,0.024,-0.034,1.007,0.00,0.12,-0.48,-22.21,-17.83,-17.58,-0.71,-2.03,76.32,0.786,-0.010,-0.016,0.618
4881099.000000,0.069,-0.026,1.007,-0.06,-0.01,-1.21,-22.52,-17.04,-17.67,-0.71,-2.03,76.32,0.786,-0.010,-0.016,0.618
4881109.000000,0.091,-0.042,1.003,-0.25,0.30,-4.63,-22.52,-16.77,-17.96,-0.72,-2.03,76.31,0.786,-0.010,-0.016,0.618
4881119.000000,0.099,-0.014,1.011,-0.22,0.12,-6.26,-22.43,-16.96,-17.79,-0.73,-2.03,76.27,0.786,-0.010,-0.016,0.617
4881129.000000,0.095,-0.029,1.011,0.43,-0.47,-3.31,-22.71,-17.10,-17.50,-0.75,-2.03,76.21,0.787,-0.010,-0.016,0.617
4881139.000000,-0.163,-0.078,0.998,-0.09,0.18,0.87,-22.33,-16.81,-17.50,-0.78,-2.03,76.17,0.787,-0.010,-0.016,0.617
4881149.000000,-0.091,-0.034,1.008,0.11,-0.47,-2.51,-21.60,-17.88,-17.54,-0.79,-2.03,76.17,0.787,-0.010,-0.016,0.617
4881159.000000,-0.045,-0.025,1.012,0.21,-0.17,-2.62,-21.42,-18.29,-17.67,-0.77,-2.03,76.15,0.787,-0.010,-0.016,0.617
4881169.000000,0.014,-0.031,1.007,-0.12,0.10,-0.31,-21.75,-18.06,-17.54,-0.75,-2.03,76.12,0.787,-0.010,-0.016,0.617
4881179.000000,0.084,-0.053,1.005,-0.13,0.11,0.73,-21.29,-18.06,-17.50,-0.74,-2.03,76.12,0.787,-0.010,-0.016,0.616
4881189.000000,0.041,0.004,0.997,0.06,-0.07,-0.66,-21.71,-18.06,-17.54,-0.73,-2.03,76.12,0.787,-0.010,-0.016,0.616
4881199.000000,0.016,0.067,1.021,0.05,-0.02,-5.20,-21.98,-17.64,-17.54,-0.74,-2.02,76.12,0.787,-0.010,-0.016,0.616
4881209.000000,0.043,0.030,1.007,0.00,-0.13,-3.70,-22.43,-17.68,-17.88,-0.74,-2.01,76.07,0.787,-0.010,-0.016,0.616
4881219.000000,0.019,-0.000,1.024,-0.21,0.24,-2.33,-22.17,-17.46,-18.13,-0.75,-1.99,76.03,0.788,-0.010,-0.016,0.616
4881229.000000,0.004,-0.062,1.073,-0.29,0.87,1.34,-22.43,-17.56,-18.08,-0.75,-1.98,76.01,0.788,-0.009,-0.016,0.616
4881239.000000,-0.037,-0.077,1.051,-0.76,10.29,3.72,-22.33,-17.96,-17.67,-0.75,-1.97,76.02,0.788,-0.010,-0.016,0.616
4881249.000000,-0.054,-0.078,1.068,-2.58,27.37,3.58,-21.29,-17.92,-17.67,-0.66,-1.98,76.05,0.788,-0.010,-0.015,0.616
4881259.000000,-0.055,-0.069,1.029,-8.65,25.56,2.46,-21.25,-18.00,-17.58,-0.40,-2.00,76.09,0.787,-0.012,-0.014,0.616
4881269.000000,-0.061,-0.074,1.038,-15.02,22.47,6.03,-21.06,-17.73,-18.08,-0.13,-2.09,76.12,0.787,-0.014,-0.012,0.616
4881279.000000,-0.087,-0.069,1.035,-19.02,25.28,10.12,-21.10,-17.92,-17.75,0.10,-2.23,76.17,0.787,-0.016,-0.011,0.617
4881289.000000,-0.045,-0.039,1.085,-24.05,27.68,9.34,-20.79,-17.64,-18.38,0.36,-2.42,76.27,0.786,-0.019,-0.011,0.617
4881299.000000,-0.013,0.004,1.096,-22.91,22.49,12.63,-20.46,-17.46,-18.21,0.64,-2.65,76.37,0.786,-0.022,-0.010,0.618
4881309.000000,0.012,-0.000,1.079,-14.31,15.81,13.92,-20.88,-17.42,-18.29,0.88,-2.89,76.49,0.785,-0.025,-0.010,0.619
4881319.000000,0.042,-0.030,1.078,-6.86,9.56,10.43,-20.83,-17.27,-18.04,1.06,-3.04,76.63,0.784,-0.026,-0.009,0.620
4881329.000000,0.052,-0.057,1.072,-6.62,8.64,7.74,-20.73,-17.38,-18.46,1.16,-3.11,76.74,0.784,-0.028,-0.009,0.620
4881339.000000,0.045,-0.066,1.045,-8.56,13.48,8.88,-20.50,-17.88,-18.33,1.25,-3.17,76.82,0.783,-0.028,-0.009,0.621
4881349.000000,0.019,-0.094,1.050,-7.88,13.58,7.82,-20.38,-17.68,-18.92,1.38,-3.25,76.91,0.783,-0.030,-0.008,0.621
4881359.000000,0.008,-0.100,1.031,-4.28,1.04,0.74,-20.56,-17.64,-18.88,1.51,-3.33,76.99,0.782,-0.031,-0.008,0.622
4881369.000000,0.012,-0.070,0.999,-2.95,-13.71,-6.69,-20.42,-17.56,-19.17,1.54,-3.38,77.01,0.782,-0.031,-0.008,0.622
4881379.000000,-0.024,-0.040,0.958,-2.13,-13.00,-7.08,-20.68,-17.46,-18.92,1.42,-3.41,76.96,0.783,-0.031,-0.009,0.622
4881389.000000,-0.036,-0.036,0.929,-1.87,-5.16,-3.42,-20.31,-17.50,-19.00,1.28,-3.44,76.88,0.783,-0.030,-0.010,0.621
4881399.000000,-0.027,-0.044,0.963,-2.69,1.44,0.83,-20.18,-18.18,-19.17,1.21,-3.46,76.85,0.783,-0.030,-0.010,0.621
4881409.000000,-0.029,-0.061,0.992,-6.76,5.93,4.58,-20.14,-18.52,-19.21,1.22,-3.48,76.85,0.783,-0.030,-0.011,0.621
4881419.000000,-0.009,-0.051,0.998,-10.09,3.49,6.33,-19.63,-18.38,-19.38,1.28,-3.55,76.89,0.783,-0.031,-0.011,0.621
4881429.000000,-0.001,-0.034,0.976,-8.69,-0.51,4.89,-19.85,-18.52,-19.50,1.32,-3.64,76.96,0.783,-0.032,-0.011,0.622
4881439.000000,-0.013,-0.029,0.957,-3.40,-2.84,1.12,-19.73,-17.96,-19.46,1.32,-3.73,77.01,0.782,-0.033,-0.011,0.622
4881449.000000,-0.028,-0.035,0.946,1.81,-3.92,-2.14,-20.73,-17.92,-19.92,1.30,-3.77,77.03,0.782,-0.033,-0.012,0.622
4881459.000000,-0.037,-0.045,0.942,4.11,-4.27,-1.27,-20.73,-17.96,-19.67,1.26,-3.75,77.01,0.782,-0.032,-0.012,0.622
4881469.000000,-0.042,-0.058,0.944,3.60,-5.25,0.65,-20.23,-17.92,-19.75,1.21,-3.71,76.99,0.782,-0.032,-0.012,0.622
4881479.000000,-0.047,-0.056,0.946,1.34,-5.68,0.91,-20.68,-17.92,-19.58,1.16,-3.68,77.00,0.782,-0.031,-0.012,0.622
4881489.000000,-0.033,-0.035,0.950,0.87,-6.60,0.20,-20.46,-17.92,-19.46,1.11,-3.66,77.01,0.782,-0.031,-0.012,0.622
4881499.000000,-0.027,-0.044,0.964,4.05,-6.13,-1.37,-20.31,-18.18,-19.96,1.05,-3.65,77.01,0.782,-0.031,-0.013,0.622
4881509.000000,-0.042,-0.065,0.988,7.56,-1.83,-2.53,-20.38,-17.92,-20.17,0.99,-3.61,77.00,0.782,-0.030,-0.013,0.622
4881519.000000,-0.042,-0.073,1.002,8.98,1.64,-0.64,-20.14,-17.96,-20.08,0.96,-3.54,76.97,0.783,-0.029,-0.013,0.622
4881529.000000,-0.036,-0.068,1.005,8.08,1.76,-0.70,-20.23,-18.06,-19.92,0.98,-3.45,76.96,0.783,-0.029,-0.012,0.622
4881539.000000,-0.047,-0.038,0.997,5.17,-0.05,-6.63,-20.04,-17.88,-20.00,1.00,-3.37,76.95,0.783,-0.028,-0.011,0.622
4881549.000000,-0.068,-0.027,0.978,7.78,0.46,-16.06,-20.64,-18.56,-19.63,1.00,-3.31,76.89,0.783,-0.028,-0.011,0.621
4881559.000000,-0.072,-0.043,0.977,15.25,2.56,-24.68,-20.27,-18.38,-20.00,0.99,-3.24,76.75,0.784,-0.028,-0.011,0.620
4881569.000000,-0.068,-0.095,0.992,20.66,6.84,-25.55,-20.18,-18.38,-19.83,1.01,-3.10,76.51,0.785,-0.027,-0.010,0.619
4881579.000000,-0.085,-0.126,1.025,17.92,14.86,-22.99,-20.14,-18.18,-19.96,1.06,-2.90,76.25,0.787,-0.026,-0.008,0.617
4881589.000000,-0.106,-0.108,1.062,9.96,19.19,-20.13,-19.73,-18.60,-19.79,1.19,-2.73,76.01,0.788,-0.025,-0.006,0.615
4881599.000000,-0.089,-0.060,1.063,3.34,15.20,-21.06,-19.35,-17.68,-19.54,1.38,-2.63,75.80,0.789,-0.026,-0.005,0.614
4881609.000000,-0.043,-0.051,1.035,-0.04,9.07,-22.23,-19.35,-17.83,-19.71,1.53,-2.59,75.59,0.790,-0.026,-0.003,0.612
4881619.000000,-0.005,-0.040,0.973,-4.40,0.36,-19.74,-19.68,-17.64,-19.88,1.62,-2.60,75.37,0.791,-0.027,-0.003,0.611
4881629.000000,-0.014,-0.013,0.962,-2.95,2.86,-13.06,-19.23,-18.06,-20.00,1.63,-2.64,75.17,0.792,-0.027,-0.003,0.609
4881639.000000,-0.040,-0.023,0.966,1.68,7.26,-8.85,-19.46,-18.00,-19.54,1.64,-2.68,75.03,0.793,-0.027,-0.003,0.608
4881649.000000,-0.048,-0.022,0.982,4.97,6.26,-9.92,-19.54,-18.00,-19.71,1.71,-2.67,74.94,0.794,-0.028,-0.002,0.608
4881659.000000,-0.034,-0.030,0.980,10.41,7.33,-11.18,-19.58,-18.10,-19.71,1.77,-2.63,74.84,0.794,-0.028,-0.002,0.607
4881669.000000,-0.012,-0.049,0.994,15.02,9.21,-12.60,-19.31,-18.29,-19.79,1.83,-2.53,74.73,0.795,-0.027,-0.001,0.606
4881679.000000,-0.009,-0.061,1.028,15.15,9.51,-12.46,-19.63,-17.88,-19.75,1.92,-2.39,74.60,0.795,-0.027,0.001,0.605
4881689.000000,-0.012,-0.052,1.068,10.72,7.94,-11.71,-19.77,-18.33,-19.54,2.00,-2.24,74.47,0.796,-0.026,0.002,0.605
4881699.000000,0.182,-0.007,1.114,4.56,4.06,-13.34,-19.13,-19.64,-19.83,2.08,-2.14,74.34,0.797,-0.026,0.003,0.604
4881709.000000,0.067,-0.123,1.075,0.48,-8.67,-8.83,-19.27,-19.98,-19.67,2.12,-2.09,74.21,0.797,-0.026,0.004,0.603
4881719.000000,0.011,-0.060,1.069,-5.02,-21.87,-6.99,-19.35,-20.21,-19.92,2.05,-2.08,74.11,0.798,-0.025,0.003,0.602
4881729.000000,-0.012,-0.012,1.064,-12.08,-27.32,-15.54,-19.23,-19.98,-19.63,1.84,-2.13,74.05,0.798,-0.025,0.002,0.602
4881739.000000,-0.010,-0.045,1.031,-11.60,-27.65,-16.24,-19.17,-20.17,-19.83,1.56,-2.25,73.90,0.799,-0.024,-0.001,0.601
4881749.000000,-0.009,-0.008,1.043,-11.63,-24.94,-8.88,-19.31,-18.92,-20.00,1.28,-2.37,73.74,0.800,-0.023,-0.003,0.600
4881759.000000,-0.031,-0.026,1.040,-9.00,-16.99,-2.24,-19.23,-18.64,-20.08,1.02,-2.49,73.65,0.800,-0.023,-0.006,0.599
4881769.000000,-0.093,-0.025,1.056,-10.48,-5.21,-6.84,-19.39,-18.98,-20.00,0.84,-2.58,73.62,0.801,-0.022,-0.008,0.599
4881779.000000,-0.087,-0.078,1.079,-17.69,7.16,-10.20,-19.35,-18.83,-20.25,0.77,-2.68,73.56,0.801,-0.023,-0.009,0.598
4881789.000000,-0.023,-0.073,1.072,-21.68,13.91,-4.35,-19.39,-18.83,-20.67,0.82,-2.85,73.46,0.801,-0.024,-0.009,0.598
4881799.000000,0.024,-0.073,1.044,-22.49,14.24,-0.90,-19.08,-17.68,-20.67,0.96,-3.06,73.41,0.802,-0.026,-0.009,0.597
4881809.000000,0.034,-0.081,1.031,-19.73,10.20,-4.59,-19.68,-17.77,-20.83,1.10,-3.29,73.41,0.802,-0.029,-0.009,0.597
4881819.000000,0.017,-0.088,1.023,-17.82,3.57,-5.96,-19.27,-17.33,-20.92,1.21,-3.49,73.37,0.802,-0.031,-0.010,0.597
4881829.000000,-0.011,-0.068,1.026,-19.72,-2.57,-6.87,-19.31,-17.96,-21.21,1.24,-3.68,73.31,0.802,-0.032,-0.010,0.596
4881839.000000,-0.027,-0.065,1.030,-22.36,-7.40,-9.53,-19.23,-17.96,-21.17,1.22,-3.87,73.25,0.802,-0.033,-0.012,0.596
4881849.000000,-0.030,-0.074,1.030,-22.65,-8.58,-10.14,-18.71,-19.48,-21.17,1.14,-4.10,73.16,0.803,-0.035,-0.013,0.595
4881859.000000,-0.021,-0.103,1.038,-21.88,-5.24,-8.04,-18.71,-19.10,-21.25,1.05,-4.32,73.07,0.803,-0.036,-0.015,0.595
4881869.000000,-0.015,-0.119,1.048,-23.84,-1.06,-4.70,-18.63,-18.83,-21.13,0.99,-4.54,72.99,0.803,-0.037,-0.017,0.594
4881879.000000,-0.013,-0.114,1.048,-27.97,-0.18,-1.98,-18.93,-19.06,-21.58,0.97,-4.78,72.94,0.804,-0.039,-0.018,0.594
4881889.000000,0.000,-0.104,1.040,-30.70,-0.83,-0.10,-18.77,-18.98,-21.50,0.97,-5.06,72.92,0.804,-0.041,-0.019,0.593
4881899.000000,-0.002,-0.100,1.039,-31.57,-3.07,1.35,-18.81,-18.06,-21.92,0.96,-5.37,72.92,0.804,-0.043,-0.021,0.593
4881909.000000,0.004,-0.097,1.039,-33.22,-5.38,3.50,-18.67,-18.42,-21.92,0.93,-5.68,72.94,0.803,-0.045,-0.023,0.593
4881919.000000,0.008,-0.091,1.044,-34.67,-5.74,3.24,-19.04,-18.06,-21.92,0.88,-6.01,72.98,0.803,-0.047,-0.025,0.593
4881929.000000,0.007,-0.105,1.060,-33.77,-4.15,0.96,-18.54,-18.18,-22.42,0.82,-6.36,73.01,0.803,-0.049,-0.027,0.594
4881939.000000,0.013,-0.132,1.062,-31.77,-3.50,-1.95,-18.25,-18.00,-22.46,0.78,-6.69,73.03,0.803,-0.051,-0.029,0.594
4881949.000000,0.013,-0.140,1.066,-31.85,-5.05,-3.42,-18.85,-17.88,-22.88,0.74,-7.01,73.02,0.802,-0.053,-0.031,0.594
4881959.000000,0.012,-0.139,1.041,-33.81,-8.29,-5.63,-18.81,-17.64,-23.50,0.68,-7.33,72.99,0.802,-0.055,-0.033,0.593
4881969.000000,0.006,-0.145,1.024,-35.72,-11.34,-7.76,-19.27,-17.88,-23.58,0.59,-7.66,72.94,0.803,-0.057,-0.036,0.593
4881979.000000,0.009,-0.140,1.021,-35.01,-12.47,-7.50,-18.89,-17.46,-23.42,0.47,-8.02,72.87,0.803,-0.059,-0.038,0.592
4881989.000000,-0.008,-0.126,1.004,-35.58,-13.34,-8.01,-18.81,-17.50,-23.46,0.33,-8.37,72.79,0.803,-0.060,-0.041,0.592
4881999.000000,-0.016,-0.134,1.004,-34.82,-11.29,-6.69,-17.85,-17.23,-23.79,0.19,-8.72,72.71,0.803,-0.062,-0.044,0.591
4882009.000000,-0.007,-0.148,1.005,-33.20,-7.68,-5.02,-17.71,-16.88,-23.96,0.06,-9.07,72.64,0.803,-0.064,-0.046,0.590
4882019.000000,0.010,-0.167,1.015,-32.39,-4.93,-2.97,-17.98,-17.04,-24.13,-0.03,-9.40,72.59,0.803,-0.066,-0.049,0.590
4882029.000000,0.010,-0.175,1.017,-32.32,-3.46,-1.44,-17.71,-16.92,-24.08,-0.08,-9.73,72.56,0.803,-0.068,-0.051,0.590
4882039.000000,0.009,-0.171,1.018,-32.39,-3.64,-1.93,-17.25,-17.04,-24.33,-0.12,-10.05,72.54,0.803,-0.070,-0.053,0.589
4882049.000000,0.011,-0.187,1.018,-31.72,-3.99,-3.36,-17.25,-17.04,-24.33,-0.16,-10.37,72.52,0.803,-0.072,-0.055,0.589
4882059.000000,0.018,-0.190,1.009,-32.17,-4.95,-3.85,-18.02,-16.77,-24.54,-0.21,-10.69,72.49,0.803,-0.074,-0.057,0.589
4882069.000000,0.012,-0.186,1.005,-33.11,-4.54,-3.13,-18.02,-16.92,-24.88,-0.27,-11.01,72.45,0.803,-0.076,-0.059,0.588
4882079.000000,0.029,-0.195,1.003,-33.20,-4.13,-2.55,-17.89,-16.42,-25.13,-0.32,-11.34,72.41,0.803,-0.078,-0.061,0.588
4882089.000000,0.045,-0.201,1.010,-33.02,-7.13,-2.07,-17.63,-16.35,-25.17,-0.37,-11.66,72.38,0.803,-0.080,-0.063,0.588
4882099.000000,0.050,-0.209,1.014,-34.40,-12.19,-2.21,-17.63,-16.35,-25.17,-0.45,-11.99,72.36,0.803,-0.082,-0.065,0.587
4882109.000000,0.048,-0.205,1.016,-36.18,-17.37,-3.10,-17.21,-16.58,-25.96,-0.58,-12.33,72.33,0.802,-0.084,-0.067,0.587
4882119.000000,0.034,-0.205,0.998,-36.94,-22.69,-5.12,-17.33,-16.42,-26.25,-0.76,-12.69,72.29,0.802,-0.085,-0.071,0.587
4882129.000000,0.028,-0.217,0.984,-36.30,-24.36,-6.61,-17.38,-16.27,-26.00,-1.00,-13.05,72.24,0.802,-0.087,-0.074,0.586
4882139.000000,0.035,-0.234,0.985,-35.91,-23.87,-5.66,-16.98,-15.63,-26.00,-1.26,-13.41,72.16,0.802,-0.088,-0.078,0.586
4882149.000000,0.034,-0.252,0.997,-37.48,-23.97,-3.10,-16.98,-15.63,-26.00,-1.52,-13.76,72.09,0.802,-0.089,-0.081,0.585
4882159.000000,0.026,-0.254,1.006,-39.99,-25.26,-1.82,-17.93,-15.39,-27.00,-1.77,-14.13,72.05,0.801,-0.090,-0.085,0.585
4882169.000000,0.016,-0.253,1.008,-40.73,-24.68,-1.81,-18.08,-15.04,-26.96,-2.03,-14.53,72.01,0.801,-0.092,-0.089,0.585
4882179.000000,0.009,-0.269,0.995,-40.11,-22.85,-1.67,-18.02,-14.81,-27.33,-2.28,-14.94,71.98,0.801,-0.094,-0.092,0.585
4882189.000000,-0.007,-0.266,0.982,-41.78,-19.93,-0.72,-18.17,-14.54,-27.67,-2.52,-15.33,71.95,0.800,-0.095,-0.096,0.584
4882199.000000,-0.001,-0.247,0.971,-43.43,-12.75,1.95,-18.17,-14.54,-27.67,-2.73,-15.75,71.92,0.800,-0.097,-0.099,0.584
4882209.000000,0.112,-0.258,0.918,-40.57,-4.49,3.45,-17.75,-14.81,-27.75,-2.86,-16.18,71.91,0.799,-0.099,-0.103,0.584
4882219.000000,0.056,-0.276,0.939,-35.84,-1.58,1.38,-17.79,-14.17,-28.08,-2.91,-16.59,71.93,0.799,-0.102,-0.105,0.584
4882229.000000,0.064,-0.299,0.984,-30.52,4.82,3.12,-17.06,-14.43,-28.46,-2.92,-16.95,71.93,0.798,-0.104,-0.107,0.584
4882239.000000,0.072,-0.306,0.990,-31.60,4.25,3.76,-17.02,-13.79,-28.29,-2.88,-17.26,71.94,0.798,-0.107,-0.108,0.584
4882249.000000,0.066,-0.310,0.992,-33.64,-0.07,4.53,-17.02,-13.79,-28.29,-2.83,-17.57,71.96,0.797,-0.109,-0.109,0.584
4882259.000000,0.057,-0.308,0.971,-34.73,-4.78,3.55,-17.43,-14.21,-28.79,-2.82,-17.91,71.99,0.797,-0.112,-0.111,0.583
4882269.000000,0.071,-0.297,0.963,-35.69,-6.76,2.94,-17.48,-13.89,-29.00,-2.85,-18.26,72.01,0.796,-0.114,-0.113,0.583
4882279.000000,0.080,-0.318,0.947,-34.55,-4.72,3.53,-17.63,-13.63,-29.08,-2.92,-18.61,72.02,0.796,-0.116,-0.115,0.583
4882289.000000,0.089,-0.322,0.959,-32.77,-6.95,4.02,-17.85,-13.98,-29.79,-2.96,-18.96,72.04,0.795,-0.118,-0.117,0.583
4882299.000000,0.081,-0.337,0.958,-32.13,-8.70,3.00,-17.85,-13.98,-29.79,-3.02,-19.29,72.06,0.794,-0.120,-0.120,0.583
4882309.000000,0.065,-0.327,0.958,-32.43,-12.60,2.75,-16.83,-13.13,-29.13,-3.11,-19.61,72.08,0.794,-0.122,-0.122,0.583
4882319.000000,0.037,-0.331,0.957,-33.00,-13.50,3.00,-17.06,-12.79,-29.25,-3.23,-19.94,72.09,0.793,-0.124,-0.124,0.583
4882329.000000,0.022,-0.340,0.944,-34.57,-13.11,3.52,-17.06,-12.89,-29.63,-3.36,-20.26,72.10,0.793,-0.125,-0.127,0.583
4882339.000000,0.024,-0.344,0.946,-37.42,-10.66,6.60,-17.33,-12.14,-29.96,-3.48,-20.60,72.11,0.792,-0.127,-0.129,0.583
4882349.000000,0.037,-0.363,0.955,-42.90,-7.80,11.05,-17.33,-12.14,-29.96,-3.57,-20.97,72.16,0.791,-0.129,-0.132,0.583
4882359.000000,0.033,-0.388,0.952,-49.36,-3.06,13.53,-17.98,-12.43,-29.83,-3.61,-21.40,72.24,0.790,-0.132,-0.134,0.584
4882369.000000,0.034,-0.362,0.978,-51.31,-2.22,14.34,-17.38,-12.48,-30.58,-3.61,-21.89,72.36,0.789,-0.135,-0.137,0.584
4882379.000000,0.042,-0.374,0.968,-48.96,-0.27,12.49,-17.71,-11.42,-30.75,-3.58,-22.41,72.48,0.787,-0.139,-0.139,0.584
4882389.000000,0.058,-0.374,0.954,-45.52,0.45,9.35,-17.93,-11.52,-30.92,-3.54,-22.91,72.58,0.786,-0.142,-0.142,0.585
4882399.000000,0.081,-0.382,0.929,-40.72,1.03,5.97,-17.93,-11.52,-30.92,-3.50,-23.37,72.66,0.785,-0.145,-0.144,0.585
4882409.000000,0.105,-0.402,0.916,-37.13,0.40,4.55,-17.21,-10.79,-31.42,-3.48,-23.78,72.70,0.784,-0.148,-0.146,0.585
4882419.000000,0.108,-0.418,0.911,-34.51,-0.28,5.51,-17.25,-10.23,-31.54,-3.47,-24.16,72.73,0.783,-0.151,-0.148,0.585
4882429.000000,0.087,-0.418,0.917,-34.75,-2.34,6.10,-17.25,-10.23,-31.54,-3.46,-24.51,72.76,0.783,-0.153,-0.150,0.585
4882439.000000,0.053,-0.407,0.923,-35.92,-4.82,4.56,-17.25,-10.23,-31.54,-3.47,-24.85,72.80,0.782,-0.156,-0.151,0.584
4882449.000000,0.026,-0.415,0.914,-35.92,-8.56,1.35,-17.25,-10.23,-31.54,-3.50,-25.21,72.83,0.781,-0.158,-0.153,0.584
4882459.000000,0.020,-0.426,0.901,-35.21,-8.90,-0.79,-16.10,-10.00,-31.83,-3.59,-25.57,72.82,0.780,-0.160,-0.156,0.584
4882469.000000,0.034,-0.435,0.892,-34.14,-5.29,0.35,-16.10,-10.00,-31.83,-3.68,-25.92,72.80,0.780,-0.162,-0.158,0.584
4882479.000000,0.062,-0.458,0.893,-33.11,-0.83,5.01,-16.10,-10.00,-31.83,-3.74,-26.25,72.78,0.779,-0.164,-0.160,0.583
4882489.000000,0.079,-0.463,0.896,-34.48,1.62,10.77,-16.56,-9.46,-32.17,-3.73,-26.59,72.81,0.778,-0.166,-0.162,0.583
4882499.000000,0.058,-0.442,0.907,-35.54,2.29,13.78,-16.14,-9.46,-32.25,-3.68,-26.94,72.89,0.777,-0.169,-0.163,0.583
4882509.000000,0.048,-0.436,0.905,-34.59,2.64,12.65,-17.06,-8.85,-32.50,-3.61,-27.30,73.02,0.776,-0.171,-0.165,0.584
4882519.000000,0.068,-0.430,0.891,-32.94,1.72,9.64,-17.14,-8.85,-32.63,-3.52,-27.65,73.14,0.775,-0.174,-0.166,0.584
4882529.000000,0.088,-0.455,0.878,-29.36,2.43,6.86,-16.98,-8.35,-32.54,-3.46,-27.98,73.23,0.774,-0.176,-0.168,0.584
4882539.000000,0.089,-0.474,0.862,-26.20,2.65,6.88,-16.60,-8.27,-32.83,-3.41,-28.28,73.29,0.773,-0.179,-0.169,0.584
4882549.000000,0.073,-0.487,0.853,-25.95,2.04,7.57,-16.92,-8.27,-33.29,-3.36,-28.55,73.34,0.773,-0.181,-0.170,0.584
4882559.000000,0.059,-0.475,0.867,-26.88,-0.49,8.49,-16.14,-7.81,-33.29,-3.32,-28.81,73.41,0.772,-0.183,-0.171,0.584
4882569.000000,0.034,-0.467,0.894,-26.83,-2.18,7.55,-15.77,-7.67,-33.21,-3.29,-29.08,73.49,0.771,-0.184,-0.172,0.585
4882579.000000,0.042,-0.506,0.910,-23.33,-2.98,4.63,-16.06,-7.77,-33.04,-3.27,-29.35,73.56,0.770,-0.186,-0.174,0.585
4882589.000000,0.029,-0.516,0.909,-24.14,-4.45,5.18,-15.92,-7.58,-33.54,-3.28,-29.59,73.60,0.769,-0.188,-0.175,0.585
4882599.000000,0.018,-0.492,0.903,-29.50,-4.67,6.43,-15.77,-7.67,-33.50,-3.30,-29.83,73.64,0.769,-0.189,-0.176,0.585
4882609.000000,0.026,-0.488,0.896,-30.98,-4.26,7.05,-16.68,-7.04,-33.46,-3.32,-30.12,73.69,0.768,-0.191,-0.178,0.585
4882619.000000,0.038,-0.497,0.876,-30.45,-3.69,7.68,-17.02,-6.98,-33.38,-3.33,-30.43,73.76,0.767,-0.193,-0.180,0.585
4882629.000000,0.056,-0.513,0.869,-29.51,-1.43,8.33,-16.79,-6.63,-33.88,-3.33,-30.74,73.83,0.766,-0.195,-0.182,0.585
4882639.000000,0.044,-0.528,0.880,-30.63,-2.41,10.21,-16.98,-6.25,-33.63,-3.31,-31.04,73.90,0.765,-0.197,-0.183,0.585
4882649.000000,0.023,-0.527,0.885,-32.91,-3.65,10.41,-16.92,-6.39,-33.83,-3.28,-31.35,74.00,0.764,-0.199,-0.185,0.585
4882659.000000,0.017,-0.522,0.897,-34.55,-3.87,8.69,-16.79,-5.93,-34.04,-3.26,-31.68,74.10,0.763,-0.201,-0.186,0.586
4882669.000000,0.032,-0.526,0.892,-33.56,-2.85,5.34,-17.33,-6.06,-34.42,-3.25,-32.02,74.18,0.762,-0.203,-0.188,0.586
4882679.000000,0.039,-0.532,0.871,-31.12,-2.77,2.14,-17.29,-5.67,-34.50,-3.25,-32.36,74.23,0.761,-0.206,-0.190,0.586
4882689.000000,0.041,-0.540,0.867,-28.87,-3.18,0.13,-17.33,-5.79,-34.58,-3.27,-32.67,74.24,0.760,-0.208,-0.191,0.585
4882699.000000,0.041,-0.541,0.859,-28.02,-2.71,0.28,-17.38,-5.48,-34.42,-3.31,-32.96,74.23,0.759,-0.209,-0.193,0.585
4882709.000000,0.033,-0.551,0.867,-29.37,-2.34,1.11,-17.75,-4.56,-34.50,-3.35,-33.23,74.21,0.759,-0.211,-0.195,0.585
4882719.000000,0.053,-0.557,0.875,-30.89,-3.62,2.04,-17.71,-3.92,-34.58,-3.37,-33.52,74.20,0.758,-0.213,-0.196,0.584
4882729.000000,0.079,-0.554,0.874,-31.92,-5.22,3.49,-17.29,-3.83,-34.67,-3.40,-33.83,74.21,0.758,-0.215,-0.198,0.584
4882739.000000,0.087,-0.561,0.876,-33.04,-6.66,3.11,-17.71,-3.64,-35.08,-3.44,-34.14,74.22,0.757,-0.217,-0.200,0.584
4882749.000000,0.072,-0.562,0.869,-33.28,-8.05,1.05,-17.79,-3.79,-34.83,-3.50,-34.47,74.24,0.756,-0.218,-0.202,0.583
4882759.000000,0.063,-0.555,0.856,-32.68,-10.29,-0.65,-18.08,-4.06,-35.00,-3.59,-34.79,74.22,0.755,-0.220,-0.204,0.583
4882769.000000,0.045,-0.568,0.856,-32.85,-10.58,-1.57,-18.31,-3.75,-34.79,-3.71,-35.11,74.19,0.754,-0.222,-0.206,0.583
4882779.000000,0.047,-0.585,0.855,-34.99,-11.68,-2.43,-18.54,-3.64,-35.33,-3.85,-35.43,74.15,0.753,-0.223,-0.209,0.582
4882789.000000,0.056,-0.589,0.851,-36.94,-12.35,-1.38,-18.31,-3.33,-35.29,-3.99,-35.77,74.09,0.753,-0.225,-0.211,0.582
4882799.000000,0.069,-0.590,0.847,-39.15,-13.20,0.29,-18.48,-3.38,-35.67,-4.14,-36.13,74.04,0.752,-0.227,-0.214,0.581
4882809.000000,0.061,-0.589,0.843,-41.01,-13.65,1.02,-17.48,-2.77,-35.42,-4.29,-36.51,74.01,0.751,-0.229,-0.217,0.581
4882819.000000,0.043,-0.584,0.845,-42.16,-12.12,0.68,-17.79,-2.38,-35.67,-4.44,-36.91,73.98,0.750,-0.231,-0.220,0.580
4882829.000000,0.029,-0.590,0.847,-43.32,-10.04,-0.51,-17.85,-2.18,-35.63,-4.59,-37.33,73.95,0.749,-0.233,-0.222,0.580
4882839.000000,0.034,-0.593,0.832,-44.33,-6.14,0.67,-18.17,-1.81,-35.79,-4.71,-37.74,73.91,0.748,-0.235,-0.225,0.579
4882849.000000,0.044,-0.602,0.821,-46.80,-2.75,3.05,-17.98,-1.46,-35.63,-4.79,-38.17,73.88,0.747,-0.237,-0.228,0.578
4882859.000000,0.066,-0.606,0.815,-49.72,-0.12,5.32,-18.39,-1.13,-35.92,-4.82,-38.62,73.87,0.745,-0.240,-0.230,0.578
4882869.000000,0.088,-0.625,0.809,-51.57,0.72,7.80,-19.04,-0.73,-35.67,-4.81,-39.11,73.88,0.744,-0.243,-0.232,0.577
4882879.000000,0.097,-0.657,0.808,-52.78,0.35,9.81,-19.00,-0.58,-36.13,-4.77,-39.62,73.93,0.743,-0.247,-0.235,0.577
4882889.000000,0.075,-0.668,0.803,-56.06,0.32,10.12,-18.71,-0.08,-36.17,-4.73,-40.14,73.99,0.741,-0.251,-0.237,0.576
4882899.000000,0.064,-0.653,0.789,-59.30,-1.97,9.10,-18.31,0.13,-36.38,-4.68,-40.70,74.06,0.739,-0.254,-0.240,0.576
4882909.000000,0.063,-0.650,0.772,-59.79,-3.15,9.20,-18.31,0.73,-36.42,-4.66,-41.29,74.12,0.738,-0.258,-0.243,0.575
4882919.000000,0.073,-0.666,0.769,-59.37,-1.70,10.24,-18.63,1.18,-36.50,-4.65,-41.89,74.18,0.736,-0.262,-0.246,0.574
4882929.000000,0.080,-0.685,0.757,-60.34,-1.72,11.55,-17.98,1.64,-36.58,-4.63,-42.49,74.25,0.734,-0.266,-0.248,0.574
4882939.000000,0.082,-0.688,0.751,-61.31,-2.84,12.23,-18.35,1.88,-36.83,-4.58,-43.09,74.34,0.732,-0.270,-0.251,0.573
4882949.000000,0.089,-0.688,0.752,-61.27,-2.88,12.84,-18.39,2.31,-36.96,-4.54,-43.71,74.43,0.730,-0.274,-0.254,0.573
4882959.000000,0.074,-0.719,0.757,-60.72,-2.74,13.00,-18.31,3.00,-36.79,-4.50,-44.33,74.54,0.727,-0.278,-0.257,0.572
4882970.000000,0.056,-0.724,0.752,-60.95,-3.58,11.84,-18.58,3.52,-36.79,-4.46,-44.93,74.65,0.725,-0.282,-0.260,0.572
4882980.000000,0.041,-0.727,0.747,-60.82,-5.55,9.86,-18.25,3.60,-36.75,-4.42,-45.55,74.75,0.723,-0.286,-0.263,0.571
4882990.000000,0.032,-0.725,0.739,-60.49,-6.21,8.14,-18.39,4.06,-37.00,-4.42,-46.16,74.83,0.721,-0.290,-0.266,0.571
4883000.000000,0.045,-0.723,0.722,-60.56,-6.02,6.25,-18.63,4.60,-36.42,-4.44,-46.76,74.88,0.719,-0.293,-0.269,0.570
4883010.000000,0.055,-0.739,0.704,-58.74,-4.72,4.49,-18.67,4.93,-37.13,-4.47,-47.37,74.91,0.717,-0.297,-0.272,0.569
4883020.000000,0.061,-0.752,0.693,-54.41,-3.82,3.54,-18.35,5.10,-37.21,-4.52,-47.95,74.92,0.715,-0.300,-0.276,0.568
4883030.000000,0.063,-0.769,0.693,-50.71,-3.44,2.94,-18.25,5.17,-36.96,-4.57,-48.50,74.91,0.713,-0.304,-0.278,0.567
4883040.000000,0.049,-0.764,0.679,-49.53,-2.32,3.56,-18.13,5.89,-37.29,-4.61,-49.01,74.89,0.712,-0.307,-0.281,0.566
4883050.000000,0.029,-0.743,0.667,-48.97,-2.36,4.29,-18.39,6.06,-37.04,-4.65,-49.50,74.88,0.710,-0.310,-0.284,0.565
4883060.000000,0.014,-0.742,0.653,-47.45,-1.53,3.92,-17.98,6.29,-37.13,-4.66,-49.99,74.89,0.709,-0.313,-0.286,0.564
4883070.000000,0.011,-0.764,0.652,-45.53,1.61,4.21,-18.25,6.71,-37.38,-4.67,-50.46,74.89,0.707,-0.316,-0.288,0.563
4883080.000000,0.025,-0.786,0.641,-44.15,3.32,4.77,-18.13,7.04,-36.88,-4.65,-50.92,74.90,0.706,-0.319,-0.290,0.562
4883090.000000,0.042,-0.787,0.624,-43.83,3.89,5.59,-18.17,7.21,-37.42,-4.60,-51.36,74.93,0.704,-0.322,-0.292,0.562
4883100.000000,0.055,-0.780,0.615,-42.86,3.32,5.42,-18.13,7.08,-37.17,-4.53,-51.80,74.96,0.703,-0.325,-0.294,0.561
4883110.000000,0.063,-0.794,0.620,-41.03,2.69,5.20,-18.77,7.81,-37.38,-4.47,-52.23,75.00,0.701,-0.328,-0.296,0.560
4883120.000000,0.036,-0.811,0.636,-40.74,3.85,6.38,-18.81,8.00,-37.29,-4.41,-52.64,75.03,0.700,-0.330,-0.297,0.559
4883130.000000,0.004,-0.803,0.639,-41.17,3.87,5.89,-19.04,8.35,-37.58,-4.34,-53.05,75.08,0.699,-0.333,-0.299,0.558
4883140.000000,-0.010,-0.804,0.625,-40.85,3.57,4.28,-19.04,8.58,-37.92,-4.26,-53.46,75.13,0.697,-0.336,-0.300,0.557
4883150.000000,-0.007,-0.820,0.606,-39.65,5.12,4.07,-19.08,9.00,-37.38,-4.19,-53.87,75.16,0.696,-0.339,-0.302,0.557
4883160.000000,0.008,-0.817,0.592,-38.91,7.54,5.07,-18.39,9.04,-37.50,-4.12,-54.27,75.19,0.695,-0.342,-0.303,0.556
4883170.000000,0.023,-0.811,0.579,-38.68,8.80,6.33,-18.81,9.14,-37.25,-4.00,-54.66,75.24,0.693,-0.345,-0.305,0.555
4883180.000000,0.036,-0.806,0.571,-37.65,8.80,7.95,-18.31,9.31,-37.67,-3.85,-55.04,75.31,0.692,-0.347,-0.306,0.554
4883190.000000,0.045,-0.808,0.566,-35.24,7.88,9.07,-18.39,9.60,-37.58,-3.68,-55.43,75.41,0.691,-0.350,-0.307,0.553
4883200.000000,0.060,-0.820,0.580,-33.27,6.82,9.34,-18.02,9.88,-37.54,-3.50,-55.78,75.53,0.690,-0.353,-0.308,0.552
4883210.000000,0.055,-0.843,0.594,-32.62,6.39,9.50,-17.85,10.42,-37.33,-3.33,-56.12,75.66,0.688,-0.356,-0.309,0.552
4883220.000000,0.015,-0.834,0.595,-32.79,5.94,7.95,-17.63,10.04,-37.46,-3.15,-56.45,75.79,0.687,-0.358,-0.310,0.551
4883230.000000,-0.010,-0.817,0.578,-31.35,5.37,3.74,-17.63,10.18,-37.33,-3.00,-56.78,75.90,0.686,-0.361,-0.310,0.551
4883240.000000,0.003,-0.824,0.555,-29.01,4.94,0.97,-17.52,10.79,-37.04,-2.90,-57.09,75.96,0.685,-0.363,-0.311,0.550
4883250.000000,0.029,-0.839,0.547,-28.52,6.55,0.32,-17.29,10.56,-37.13,-2.85,-57.38,75.96,0.684,-0.365,-0.312,0.549
4883260.000000,0.036,-0.852,0.547,-29.46,8.04,0.06,-16.83,11.42,-37.46,-2.79,-57.66,75.95,0.683,-0.367,-0.313,0.548
4883270.000000,0.032,-0.843,0.547,-29.44,8.98,0.86,-16.75,11.42,-37.50,-2.73,-57.95,75.92,0.682,-0.369,-0.314,0.547
4883280.000000,0.023,-0.829,0.542,-28.42,7.82,0.79,-16.52,11.48,-37.33,-2.66,-58.25,75.91,0.682,-0.371,-0.315,0.546
4883290.000000,0.011,-0.828,0.532,-26.63,8.10,0.71,-16.68,12.10,-37.46,-2.59,-58.53,75.90,0.681,-0.373,-0.316,0.545
4883300.000000,0.011,-0.855,0.532,-26.00,9.65,1.00,-16.79,12.21,-37.42,-2.51,-58.79,75.89,0.680,-0.375,-0.317,0.544
4883310.000000,0.017,-0.885,0.540,-28.22,10.49,3.18,-17.10,12.43,-37.46,-2.41,-59.05,75.89,0.680,-0.377,-0.317,0.543
4883320.000000,0.016,-0.870,0.541,-32.11,12.12,5.92,-17.10,12.38,-37.50,-2.28,-59.33,75.93,0.679,-0.379,-0.318,0.542
4883330.000000,0.021,-0.851,0.537,-35.54,11.88,7.84,-17.02,12.98,-37.38,-2.08,-59.64,76.02,0.678,-0.382,-0.319,0.541
4883340.000000,0.010,-0.848,0.545,-36.76,11.78,7.42,-16.92,12.98,-37.33,-1.85,-59.99,76.15,0.677,-0.385,-0.319,0.540
4883350.000000,-0.004,-0.859,0.550,-36.35,12.15,5.58,-16.92,13.52,-37.25,-1.62,-60.36,76.28,0.675,-0.388,-0.320,0.539
4883360.000000,-0.018,-0.869,0.547,-35.68,12.35,4.95,-16.64,13.35,-37.33,-1.41,-60.72,76.38,0.674,-0.391,-0.321,0.538
4883370.000000,-0.021,-0.866,0.530,-35.84,11.37,4.84,-16.10,13.67,-37.46,-1.21,-61.07,76.47,0.673,-0.393,-0.321,0.537
4883380.000000,-0.022,-0.874,0.506,-36.16,10.68,3.70,-16.06,13.79,-37.33,-1.01,-61.42,76.56,0.672,-0.396,-0.322,0.536
4883390.000000,-0.016,-0.891,0.496,-35.81,10.93,3.42,-16.00,14.13,-37.58,-0.83,-61.77,76.64,0.671,-0.399,-0.323,0.535
4883400.000000,-0.014,-0.904,0.493,-36.14,11.70,3.20,-16.06,14.17,-37.50,-0.65,-62.12,76.72,0.670,-0.402,-0.324,0.534
4883410.000000,-0.012,-0.895,0.501,-37.81,11.89,2.82,-15.96,14.67,-37.21,-0.47,-62.48,76.79,0.669,-0.404,-0.325,0.533
4883420.000000,-0.013,-0.887,0.505,-39.43,11.38,1.51,-15.92,14.67,-37.29,-0.29,-62.85,76.85,0.668,-0.407,-0.326,0.531
4883430.000000,-0.017,-0.887,0.500,-39.47,12.13,1.31,-15.96,14.85,-36.88,-0.14,-63.24,76.89,0.667,-0.410,-0.327,0.530
4883440.000000,-0.016,-0.895,0.494,-39.51,12.54,1.51,-15.60,15.27,-36.92,0.01,-63.62,76.93,0.665,-0.413,-0.328,0.529
4883450.000000,-0.012,-0.912,0.480,-40.28,12.87,1.23,-15.60,15.67,-36.67,0.18,-64.00,76.97,0.664,-0.416,-0.329,0.527
4883460.000000,-0.008,-0.929,0.466,-41.73,13.10,0.53,-15.42,15.63,-36.79,0.34,-64.39,77.01,0.663,-0.419,-0.330,0.526
4883470.000000,-0.008,-0.927,0.454,-42.96,13.12,0.11,-15.14,15.89,-36.96,0.50,-64.80,77.04,0.662,-0.421,-0.331,0.524
4883480.000000,-0.010,-0.926,0.436,-44.21,12.86,-0.88,-15.08,16.31,-36.92,0.65,-65.22,77.06,0.661,-0.425,-0.332,0.522
4883490.000000,-0.014,-0.931,0.432,-44.45,11.92,-1.18,-15.14,16.23,-36.96,0.78,-65.66,77.06,0.660,-0.428,-0.333,0.521
4883500.000000,-0.017,-0.935,0.423,-46.35,12.02,-1.76,-15.31,16.35,-36.92,0.89,-66.10,77.05,0.658,-0.431,-0.335,0.519
4883510.000000,-0.015,-0.927,0.410,-51.57,10.56,-3.23,-15.08,17.18,-36.75,0.99,-66.56,77.03,0.657,-0.434,-0.336,0.517
4883520.000000,-0.016,-0.917,0.393,-56.20,10.01,-2.34,-15.00,17.46,-36.67,1.06,-67.06,76.98,0.656,-0.437,-0.338,0.515
4883530.000000,-0.019,-0.913,0.376,-58.66,9.55,0.79,-15.00,18.29,-36.46,1.13,-67.61,76.95,0.654,-0.441,-0.340,0.513
4883540.000000,0.002,-0.907,0.358,-59.25,8.79,4.16,-15.00,18.29,-36.63,1.27,-68.19,77.00,0.652,-0.444,-0.342,0.511
4883550.000000,0.016,-0.923,0.353,-58.88,9.79,5.52,-14.63,18.92,-36.46,1.49,-68.78,77.14,0.650,-0.448,-0.344,0.509
4883560.000000,0.011,-0.939,0.343,-58.33,9.42,5.56,-13.98,19.71,-36.33,1.77,-69.37,77.34,0.647,-0.452,-0.346,0.507
4883570.000000,-0.009,-0.948,0.353,-58.46,8.89,6.32,-13.98,20.06,-36.79,2.06,-69.95,77.55,0.645,-0.456,-0.347,0.505
4883580.000000,-0.028,-0.944,0.360,-59.45,9.73,7.95,-14.43,19.98,-36.29,2.38,-70.53,77.79,0.643,-0.460,-0.349,0.503
4883590.000000,-0.051,-0.938,0.346,-57.88,11.29,8.70,-14.08,20.63,-36.29,2.77,-71.12,78.10,0.640,-0.464,-0.351,0.501
4883600.000000,-0.052,-0.929,0.335,-54.46,13.62,5.95,-13.81,20.89,-35.83,3.23,-71.69,78.47,0.638,-0.468,-0.352,0.500
4883610.000000,-0.035,-0.934,0.322,-47.89,16.12,2.23,-13.93,21.17,-35.63,3.68,-72.23,78.80,0.636,-0.472,-0.354,0.498
4883620.000000,-0.030,-0.943,0.291,-40.33,17.81,-0.21,-14.35,21.39,-35.46,4.04,-72.71,79.02,0.634,-0.475,-0.355,0.496
4883630.000000,-0.023,-0.945,0.278,-34.56,17.97,-1.41,-13.98,21.52,-35.29,4.33,-73.11,79.13,0.633,-0.478,-0.356,0.494
4883640.000000,-0.032,-0.944,0.282,-34.01,16.72,-0.54,-14.13,21.48,-35.29,4.56,-73.46,79.19,0.632,-0.481,-0.356,0.492
4883650.000000,-0.034,-0.944,0.278,-36.37,15.62,-0.14,-13.48,21.89,-35.25,4.81,-73.80,79.26,0.631,-0.483,-0.357,0.490
4883660.000000,-0.046,-0.943,0.277,-40.29,15.46,0.87,-12.67,21.75,-35.25,5.07,-74.16,79.38,0.630,-0.486,-0.357,0.488
4883670.000000,-0.055,-0.945,0.278,-45.59,14.92,2.54,-12.56,22.43,-34.92,5.40,-74.55,79.55,0.629,-0.489,-0.358,0.487
4883680.000000,-0.065,-0.958,0.255,-50.04,13.82,5.57,-12.52,22.58,-35.13,5.82,-74.99,79.83,0.628,-0.492,-0.359,0.485
4883690.000000,-0.052,-0.963,0.254,-51.69,15.78,6.50,-12.33,22.85,-35.29,6.38,-75.46,80.27,0.626,-0.496,-0.360,0.483
4883700.000000,-0.043,-0.963,0.249,-49.95,17.55,4.88,-12.52,23.00,-34.63,7.07,-75.96,80.82,0.624,-0.499,-0.361,0.481
4883710.000000,-0.045,-0.967,0.228,-45.78,17.69,4.46,-13.06,23.50,-34.79,7.74,-76.45,81.33,0.622,-0.503,-0.362,0.479
4883720.000000,-0.051,-0.954,0.213,-41.00,16.21,4.38,-12.83,23.54,-34.33,8.39,-76.90,81.81,0.620,-0.506,-0.363,0.477
4883730.000000,-0.043,-0.939,0.207,-37.91,14.44,3.74,-12.79,23.63,-34.13,9.04,-77.30,82.30,0.619,-0.509,-0.363,0.475
4883740.000000,-0.044,-0.932,0.206,-36.53,13.29,3.12,-12.75,24.00,-34.50,9.65,-77.67,82.78,0.617,-0.512,-0.364,0.474
4883750.000000,-0.043,-0.952,0.205,-35.92,14.01,2.40,-12.93,24.14,-34.00,10.23,-78.02,83.24,0.616,-0.515,-0.365,0.472
4883760.000000,-0.054,-0.970,0.200,-36.54,14.80,1.49,-13.06,24.50,-34.33,10.81,-78.37,83.68,0.615,-0.517,-0.365,0.470
4883770.000000,-0.061,-0.974,0.192,-39.95,13.81,-0.18,-13.13,24.50,-34.33,11.38,-78.73,84.12,0.613,-0.520,-0.366,0.469
4883780.000000,-0.062,-0.987,0.178,-43.65,12.06,0.32,-12.79,24.73,-33.96,11.94,-79.11,84.55,0.612,-0.523,-0.367,0.467
4883790.000000,-0.043,-0.985,0.171,-46.11,11.73,0.30,-12.89,25.38,-33.75,12.57,-79.53,85.07,0.610,-0.525,-0.368,0.465
4883800.000000,-0.021,-0.988,0.171,-46.07,11.06,-0.38,-12.79,25.46,-33.46,13.29,-79.97,85.68,0.609,-0.528,-0.369,0.463
4883810.000000,-0.017,-0.978,0.159,-44.59,10.00,-0.57,-11.79,25.64,-33.58,14.02,-80.42,86.31,0.607,-0.531,-0.370,0.461
4883820.000000,-0.020,-0.954,0.137,-41.64,8.18,-0.88,-11.50,25.60,-33.38,14.75,-80.86,86.94,0.605,-0.534,-0.372,0.459
4883830.000000,-0.046,-0.922,0.122,-36.94,5.97,-0.92,-11.27,26.18,-33.33,15.45,-81.26,87.56,0.604,-0.536,-0.373,0.457
4883840.000000,-0.067,-0.910,0.124,-32.79,5.99,-1.44,-11.60,26.14,-33.21,16.12,-81.63,88.18,0.602,-0.539,-0.374,0.456
4883850.000000,-0.094,-0.940,0.137,-30.47,10.74,-1.64,-11.56,26.29,-33.08,16.75,-81.95,88.76,0.601,-0.541,-0.375,0.454
4883860.000000,-0.121,-0.974,0.136,-32.23,17.66,-1.90,-11.60,26.98,-32.83,17.40,-82.25,89.31,0.600,-0.543,-0.376,0.453
4883870.000000,-0.100,-1.000,0.131,-38.07,22.19,-1.85,-11.27,27.21,-32.71,18.19,-82.56,89.94,0.599,-0.545,-0.376,0.451
4883880.000000,-0.086,-1.011,0.088,-46.72,22.73,3.33,-11.46,27.52,-32.71,19.25,-82.91,90.79,0.598,-0.548,-0.377,0.448
4883890.000000,-0.052,-1.009,0.070,-56.55,21.70,9.05,-11.14,27.38,-32.33,21.01,-83.33,92.34,0.596,-0.551,-0.377,0.446
4883900.000000,-0.020,-1.004,0.087,-60.20,24.82,11.18,-11.10,27.67,-32.33,23.82,-83.81,94.94,0.594,-0.555,-0.378,0.444
4883910.000000,-0.016,-1.006,0.071,-58.65,23.00,12.96,-11.56,28.13,-31.96,27.52,-84.30,98.41,0.591,-0.559,-0.378,0.441
4883920.000000,-0.009,-1.004,0.071,-52.68,19.69,12.56,-11.27,28.58,-31.79,31.94,-84.75,102.62,0.589,-0.564,-0.379,0.438
4883930.000000,-0.000,-1.013,0.070,-45.83,16.30,11.61,-11.42,28.67,-31.50,36.69,-85.12,107.19,0.586,-0.568,-0.379,0.436
4883940.000000,0.002,-1.026,0.057,-41.99,12.64,11.31,-11.33,29.04,-31.46,41.45,-85.42,111.80,0.584,-0.571,-0.380,0.434
4883950.000000,-0.000,-1.013,0.040,-39.84,8.54,9.60,-11.14,29.48,-31.42,46.28,-85.65,116.51,0.582,-0.574,-0.380,0.433
4883960.000000,-0.012,-0.992,0.022,-38.59,4.78,7.87,-10.18,29.08,-31.17,51.21,-85.85,121.36,0.580,-0.577,-0.381,0.432
4883970.000000,-0.033,-0.981,0.015,-37.20,1.89,6.06,-10.04,29.17,-30.96,56.25,-86.03,126.36,0.578,-0.579,-0.381,0.430
4883980.000000,-0.066,-0.974,0.025,-36.49,0.75,2.21,-10.18,29.31,-30.83,61.41,-86.17,131.51,0.576,-0.581,-0.382,0.429
4883990.000000,-0.097,-0.978,0.026,-36.48,1.99,-2.48,-9.81,29.77,-30.67,66.62,-86.31,136.72,0.574,-0.583,-0.384,0.428
4884000.000000,-0.115,-0.978,0.036,-36.77,4.28,-5.53,-10.18,29.63,-30.50,71.94,-86.46,142.04,0.572,-0.585,-0.385,0.427
4884010.000000,-0.114,-0.980,0.042,-37.90,7.04,-7.48,-10.18,29.63,-30.50,77.61,-86.60,147.67,0.571,-0.587,-0.386,0.425
4884020.000000,-0.103,-1.005,0.029,-38.50,10.57,-6.24,-10.64,30.23,-30.25,83.80,-86.72,153.82,0.569,-0.589,-0.388,0.423
4884030.000000,-0.091,-1.019,0.017,-38.10,13.28,-3.31,-10.58,30.50,-30.29,90.50,-86.79,160.42,0.568,-0.591,-0.389,0.421
4884040.000000,-0.077,-1.013,0.007,-36.48,14.74,-1.71,-10.50,30.73,-30.33,97.35,-86.79,167.15,0.566,-0.593,-0.390,0.419
4884050.000000,-0.075,-1.007,0.004,-33.95,13.54,-0.67,-10.73,30.58,-30.21,103.88,-86.74,173.55,0.565,-0.595,-0.390,0.417
4884060.000000,-0.067,-1.002,-0.003,-30.56,11.74,0.63,-10.73,30.58,-30.21,109.67,-86.65,179.21,0.564,-0.597,-0.391,0.415
4884070.000000,-0.058,-1.001,-0.007,-28.33,10.53,1.61,-10.92,31.54,-29.75,114.51,-86.53,-176.06,0.563,-0.599,-0.392,0.414
4884080.000000,-0.045,-0.998,-0.015,-27.62,8.98,2.17,-11.04,31.18,-29.83,118.56,-86.38,-172.11,0.561,-0.601,-0.392,0.412
4884090.000000,-0.049,-1.003,-0.024,-27.60,8.02,1.72,-10.73,31.73,-29.79,122.10,-86.23,-168.65,0.560,-0.603,-0.392,0.411
4884100.000000,-0.059,-1.022,-0.017,-28.09,7.43,0.99,-11.10,31.42,-29.71,125.39,-86.06,-165.43,0.559,-0.605,-0.393,0.409
4884110.000000,-0.073,-1.040,-0.008,-30.03,7.76,-0.01,-11.10,31.42,-29.71,128.52,-85.89,-162.38,0.558,-0.606,-0.393,0.408
4884120.000000,-0.091,-1.044,0.007,-32.85,7.62,-1.87,-10.88,32.10,-28.67,131.61,-85.70,-159.35,0.556,-0.608,-0.394,0.407
4884130.000000,-0.099,-1.046,0.005,-35.84,9.42,-4.15,-10.81,31.96,-28.63,134.83,-85.49,-156.19,0.555,-0.610,-0.395,0.405
4884140.000000,-0.113,-1.022,-0.005,-37.12,11.12,-6.99,-11.18,32.56,-28.46,138.21,-85.26,-152.90,0.554,-0.612,-0.396,0.403
4884150.000000,-0.108,-0.993,-0.027,-35.43,12.32,-9.77,-10.92,32.60,-28.50,141.63,-85.03,-149.58,0.552,-0.614,-0.397,0.401
4884160.000000,-0.091,-0.988,-0.048,-31.56,14.44,-8.84,-10.92,32.60,-28.50,144.88,-84.80,-146.43,0.551,-0.615,-0.398,0.399
4884170.000000,-0.071,-0.984,-0.064,-27.87,16.55,-5.50,-10.31,32.38,-28.33,147.65,-84.58,-143.79,0.550,-0.617,-0.399,0.397
4884180.000000,-0.052,-0.983,-0.064,-27.20,16.00,-2.55,-10.58,32.73,-28.17,149.81,-84.37,-141.79,0.549,-0.619,-0.399,0.395
4884190.000000,-0.046,-0.987,-0.068,-30.23,14.64,-1.80,-10.27,32.96,-28.00,151.52,-84.15,-140.23,0.549,-0.620,-0.400,0.393
4884200.000000,-0.072,-0.997,-0.052,-36.83,12.40,-2.65,-10.42,32.79,-27.88,153.12,-83.90,-138.76,0.548,-0.622,-0.400,0.391
4884210.000000,-0.068,-1.005,-0.063,-43.57,10.12,-3.82,-10.42,32.79,-27.88,154.88,-83.59,-137.13,0.546,-0.624,-0.401,0.389
4884220.000000,-0.068,-1.007,-0.060,-46.58,8.13,-3.60,-10.27,33.02,-27.25,156.73,-83.22,-135.37,0.544,-0.627,-0.402,0.387
4884230.000000,-0.047,-1.014,-0.067,-45.80,9.68,-4.83,-10.42,33.38,-27.46,158.46,-82.81,-133.70,0.542,-0.629,-0.403,0.384
4884240.000000,-0.041,-0.985,-0.080,-44.23,10.92,-11.25,-10.50,33.56,-27.25,160.10,-82.41,-132.15,0.540,-0.631,-0.405,0.382
4884250.000000,-0.051,-0.936,-0.107,-40.33,8.56,-20.19,-10.73,33.56,-26.83,161.95,-82.03,-130.39,0.539,-0.633,-0.406,0.379
4884260.000000,-0.038,-0.918,-0.132,-33.71,8.41,-25.52,-10.73,33.56,-26.83,164.13,-81.70,-128.28,0.537,-0.635,-0.408,0.377
4884270.000000,-0.027,-0.932,-0.158,-27.76,9.22,-25.42,-10.77,34.33,-26.38,166.42,-81.43,-126.05,0.537,-0.636,-0.410,0.374
4884280.000000,-0.024,-0.963,-0.164,-25.29,9.85,-23.32,-10.42,34.93,-26.67,168.54,-81.21,-123.99,0.536,-0.636,-0.412,0.371
4884290.000000,-0.031,-1.002,-0.162,-26.96,9.89,-21.01,-10.58,34.79,-26.50,170.41,-81.00,-122.19,0.536,-0.637,-0.414,0.368
4884300.000000,-0.030,-1.025,-0.166,-32.92,9.08,-18.25,-10.18,34.83,-26.21,172.07,-80.77,-120.61,0.535,-0.638,-0.415,0.366
4884310.000000,-0.033,-1.027,-0.166,-41.82,8.99,-14.90,-10.18,34.83,-26.21,173.52,-80.48,-119.24,0.535,-0.639,-0.417,0.363
4884320.000000,-0.019,-1.025,-0.165,-48.16,9.52,-10.53,-11.14,35.98,-25.63,174.74,-80.09,-118.09,0.533,-0.641,-0.419,0.361
4884330.000000,-0.008,-1.029,-0.162,-49.02,10.09,-5.76,-11.00,36.31,-25.13,175.67,-79.63,-117.25,0.531,-0.643,-0.420,0.358
4884340.000000,0.009,-1.028,-0.166,-46.41,9.62,-2.15,-11.00,36.31,-25.13,176.28,-79.14,-116.72,0.529,-0.645,-0.422,0.355
4884350.000000,0.030,-1.020,-0.190,-43.41,9.35,0.03,-11.00,36.31,-25.13,176.66,-78.68,-116.44,0.527,-0.647,-0.423,0.353
4884360.000000,0.043,-1.005,-0.210,-40.44,6.16,1.31,-11.00,36.31,-25.13,176.89,-78.25,-116.29,0.525,-0.650,-0.424,0.351
4884370.000000,0.027,-0.990,-0.219,-36.91,2.36,3.66,-10.50,36.17,-25.00,177.07,-77.85,-116.18,0.523,-0.652,-0.425,0.349
4884380.000000,-0.001,-0.969,-0.228,-33.61,0.76,3.63,-10.50,36.17,-25.00,177.10,-77.48,-116.18,0.521,-0.654,-0.426,0.347
4884390.000000,-0.033,-0.963,-0.237,-30.33,0.58,0.85,-10.50,36.17,-25.00,177.05,-77.14,-116.24,0.519,-0.655,-0.426,0.346
4884400.000000,-0.058,-0.972,-0.233,-27.90,0.37,-1.20,-10.50,36.17,-25.00,177.08,-76.83,-116.22,0.517,-0.657,-0.427,0.345
4884410.000000,-0.055,-0.986,-0.225,-27.79,0.60,-3.20,-10.50,36.17,-25.00,177.17,-76.55,-116.13,0.515,-0.658,-0.428,0.344
4884420.000000,-0.041,-0.993,-0.224,-30.68,1.87,-5.91,-10.64,37.27,-24.21,177.33,-76.27,-115.97,0.514,-0.659,-0.429,0.343
4884430.000000,-0.024,-0.997,-0.233,-34.96,1.20,-6.41,-11.00,37.35,-23.83,177.60,-75.97,-115.70,0.512,-0.660,-0.430,0.341
4884440.000000,-0.007,-0.999,-0.254,-40.42,0.88,-4.23,-11.10,37.73,-23.88,177.90,-75.64,-115.41,0.510,-0.662,-0.431,0.340
4884450.000000,0.007,-0.997,-0.247,-41.93,3.47,-2.29,-11.75,37.50,-24.04,178.13,-75.24,-115.19,0.508,-0.663,-0.433,0.338
4884460.000000,0.017,-0.992,-0.246,-38.08,4.42,-1.00,-11.10,37.73,-23.42,178.30,-74.83,-115.04,0.506,-0.665,-0.434,0.336
4884470.000000,0.021,-0.982,-0.253,-31.21,2.92,1.09,-10.77,37.67,-22.92,178.43,-74.45,-114.95,0.504,-0.667,-0.435,0.334
4884480.000000,0.010,-0.989,-0.237,-26.11,2.84,2.17,-10.50,37.39,-22.83,178.48,-74.13,-114.93,0.502,-0.668,-0.436,0.333
4884490.000000,-0.009,-0.984,-0.230,-22.71,6.16,2.62,-11.04,38.00,-22.67,178.48,-73.88,-114.96,0.501,-0.670,-0.436,0.332
4884500.000000,-0.024,-0.980,-0.239,-19.26,8.74,3.88,-10.68,37.58,-22.63,178.48,-73.65,-115.02,0.500,-0.671,-0.437,0.331
4884510.000000,-0.019,-0.971,-0.251,-16.77,9.78,5.55,-11.10,38.00,-22.25,178.46,-73.47,-115.13,0.499,-0.672,-0.437,0.330
4884520.000000,-0.028,-0.951,-0.251,-16.73,11.05,4.98,-11.33,37.77,-22.63,178.38,-73.31,-115.31,0.498,-0.673,-0.436,0.329
4884530.000000,-0.047,-0.945,-0.244,-16.81,13.41,2.36,-11.50,37.81,-22.42,178.32,-73.15,-115.48,0.498,-0.674,-0.436,0.328
4884540.000000,-0.046,-0.964,-0.259,-16.58,15.72,-0.33,-11.42,37.77,-22.38,178.37,-72.98,-115.57,0.497,-0.676,-0.436,0.327
4884550.000000,-0.033,-0.982,-0.269,-16.27,16.21,-1.76,-11.33,37.35,-22.00,178.52,-72.82,-115.57,0.497,-0.677,-0.435,0.325
4884560.000000,-0.016,-0.988,-0.280,-18.27,13.46,-3.21,-11.33,37.81,-22.21,178.73,-72.67,-115.52,0.496,-0.678,-0.435,0.324
4884570.000000,-0.007,-0.997,-0.284,-23.90,8.96,-5.64,-11.79,37.89,-22.17,178.96,-72.49,-115.42,0.496,-0.679,-0.435,0.322
4884580.000000,-0.018,-0.991,-0.299,-32.44,4.58,-6.87,-12.38,38.35,-22.33,179.23,-72.26,-115.24,0.495,-0.680,-0.436,0.320
4884590.000000,-0.015,-0.979,-0.288,-37.61,4.14,-6.75,-12.14,38.18,-22.13,179.49,-71.96,-115.01,0.494,-0.681,-0.437,0.319
4884600.000000,0.005,-0.979,-0.279,-37.02,4.02,-6.57,-12.29,38.04,-21.79,179.74,-71.59,-114.79,0.492,-0.683,-0.438,0.317
4884610.000000,0.006,-0.981,-0.275,-32.51,4.28,-7.66,-12.29,38.58,-21.75,179.98,-71.22,-114.59,0.490,-0.684,-0.439,0.315
4884620.000000,-0.006,-0.977,-0.281,-25.89,4.42,-10.87,-10.88,38.68,-21.38,-179.76,-70.90,-114.36,0.488,-0.685,-0.440,0.313
4884630.000000,-0.018,-0.971,-0.290,-19.83,3.53,-14.26,-11.27,38.81,-21.75,-179.42,-70.65,-114.05,0.487,-0.686,-0.442,0.311
4884640.000000,-0.031,-0.956,-0.294,-16.28,3.61,-15.39,-10.92,39.04,-21.21,-179.01,-70.45,-113.64,0.487,-0.686,-0.443,0.310
4884650.000000,-0.042,-0.943,-0.294,-15.63,5.39,-15.49,-11.46,38.73,-21.00,-178.57,-70.29,-113.21,0.486,-0.687,-0.444,0.308
4884660.000000,-0.045,-0.936,-0.291,-17.38,6.78,-15.56,-11.33,39.04,-20.92,-178.12,-70.14,-112.79,0.486,-0.687,-0.445,0.307
4884670.000000,-0.023,-0.933,-0.294,-20.30,7.98,-14.88,-12.21,39.04,-20.88,-177.67,-69.97,-112.38,0.486,-0.687,-0.446,0.305
4884680.000000,-0.006,-0.955,-0.303,-22.48,8.78,-15.13,-12.14,39.14,-20.83,-177.23,-69.77,-111.99,0.485,-0.688,-0.447,0.303
4884690.000000,0.023,-0.981,-0.309,-24.95,9.21,-16.09,-12.02,39.18,-20.83,-176.78,-69.55,-111.60,0.485,-0.688,-0.448,0.301
4884700.000000,0.041,-1.002,-0.339,-27.79,8.85,-14.17,-12.56,39.14,-20.50,-176.31,-69.30,-111.20,0.484,-0.689,-0.449,0.299
4884710.000000,0.050,-0.991,-0.353,-30.82,7.58,-10.87,-12.75,39.08,-20.58,-175.90,-69.03,-110.85,0.483,-0.690,-0.451,0.297
4884720.000000,0.056,-0.973,-0.355,-34.04,7.48,-9.07,-12.14,39.46,-20.25,-175.58,-68.72,-110.59,0.482,-0.691,-0.452,0.295
4884730.000000,0.054,-0.954,-0.354,-35.48,8.12,-8.53,-12.10,39.54,-19.92,-175.34,-68.38,-110.41,0.480,-0.692,-0.453,0.293
4884740.000000,0.043,-0.937,-0.357,-35.16,9.50,-8.55,-12.38,39.88,-19.54,-175.12,-68.02,-110.26,0.479,-0.693,-0.454,0.291
4884750.000000,0.036,-0.936,-0.363,-32.88,10.09,-8.53,-12.48,39.96,-19.08,-174.88,-67.67,-110.11,0.477,-0.694,-0.455,0.288
4884760.000000,0.033,-0.939,-0.378,-29.13,9.31,-8.33,-12.79,39.50,-19.13,-174.65,-67.33,-109.96,0.476,-0.696,-0.456,0.286
4884770.000000,0.033,-0.942,-0.374,-25.50,8.76,-7.47,-12.14,39.88,-19.13,-174.42,-67.03,-109.82,0.475,-0.697,-0.457,0.284
4884780.000000,0.038,-0.947,-0.376,-21.75,7.96,-5.33,-12.33,39.92,-19.29,-174.22,-66.77,-109.70,0.474,-0.698,-0.457,0.282
4884790.000000,0.021,-0.847,-0.365,-19.08,6.49,-5.72,-12.33,39.96,-19.08,-174.07,-66.55,-109.61,0.473,-0.699,-0.458,0.280
4884800.000000,0.048,-0.938,-0.387,-21.95,4.78,-18.34,-12.38,39.96,-19.46,-173.92,-66.35,-109.52,0.472,-0.699,-0.459,0.279
4884810.000000,0.048,-0.943,-0.393,-22.20,8.60,-18.74,-12.56,40.46,-18.71,-173.55,-66.12,-109.18,0.471,-0.700,-0.460,0.277
4884820.000000,0.056,-0.939,-0.395,-20.53,9.21,-12.80,-13.43,39.96,-18.75,-173.10,-65.88,-108.78,0.471,-0.700,-0.461,0.275
4884830.000000,0.077,-0.923,-0.397,-21.65,9.10,-8.70,-13.71,40.33,-18.63,-172.77,-65.66,-108.51,0.470,-0.701,-0.462,0.273
4884840.000000,0.097,-0.920,-0.407,-21.56,11.14,-7.29,-13.48,40.10,-18.58,-172.54,-65.44,-108.36,0.469,-0.701,-0.463,0.271
4884850.000000,0.101,-0.921,-0.406,-19.70,12.51,-9.60,-13.52,40.06,-18.38,-172.33,-65.22,-108.25,0.469,-0.702,-0.463,0.269
4884860.000000,0.092,-0.924,-0.406,-17.38,13.10,-13.53,-13.35,40.79,-18.13,-172.06,-65.01,-108.09,0.468,-0.703,-0.464,0.267
4884870.000000,0.085,-0.928,-0.403,-16.44,12.71,-14.91,-13.85,40.29,-18.13,-171.69,-64.82,-107.82,0.468,-0.703,-0.465,0.265
4884880.000000,0.078,-0.932,-0.409,-16.91,13.93,-12.29,-13.75,40.64,-18.29,-171.29,-64.64,-107.52,0.468,-0.704,-0.465,0.263
4884890.000000,0.081,-0.926,-0.414,-19.26,16.85,-8.07,-13.81,40.79,-18.13,-170.93,-64.46,-107.28,0.468,-0.704,-0.466,0.261
4884900.000000,0.080,-0.906,-0.423,-22.56,19.87,-4.90,-14.27,40.68,-17.38,-170.64,-64.27,-107.15,0.468,-0.705,-0.466,0.259
4884910.000000,0.085,-0.886,-0.439,-24.76,22.24,-1.87,-14.17,40.64,-17.83,-170.41,-64.05,-107.11,0.467,-0.706,-0.466,0.257
4884920.000000,0.089,-0.880,-0.445,-25.38,22.99,2.42,-13.39,39.83,-17.63,-170.23,-63.81,-107.15,0.467,-0.707,-0.466,0.254
4884930.000000,0.099,-0.886,-0.451,-26.58,22.95,5.10,-13.48,39.42,-17.04,-170.12,-63.56,-107.28,0.466,-0.709,-0.466,0.252
4884940.000000,0.103,-0.884,-0.444,-28.33,23.11,5.66,-13.43,39.54,-17.29,-170.07,-63.31,-107.49,0.465,-0.711,-0.465,0.250
4884950.000000,0.102,-0.889,-0.440,-29.94,24.12,5.29,-13.25,39.83,-17.33,-170.04,-63.04,-107.71,0.464,-0.713,-0.464,0.247
4884960.000000,0.090,-0.891,-0.452,-30.60,25.00,3.38,-13.21,39.64,-17.00,-170.00,-62.76,-107.94,0.463,-0.714,-0.464,0.245
4884970.000000,0.074,-0.895,-0.454,-29.62,24.16,1.11,-12.93,40.46,-16.63,-169.91,-62.46,-108.12,0.462,-0.716,-0.463,0.242
4884980.000000,0.066,-0.882,-0.459,-30.35,22.88,0.91,-13.02,39.83,-16.50,-169.79,-62.17,-108.26,0.461,-0.718,-0.463,0.240
4884990.000000,0.046,-0.840,-0.436,-33.07,21.33,2.68,-13.02,40.14,-16.25,-169.68,-61.88,-108.39,0.460,-0.720,-0.462,0.237
4885000.000000,0.090,-0.828,-0.465,-34.91,21.82,3.77,-12.89,40.23,-16.00,-169.62,-61.57,-108.58,0.459,-0.722,-0.462,0.234
4885010.000000,0.075,-0.894,-0.463,-38.32,22.86,0.27,-12.83,40.33,-15.71,-169.60,-61.23,-108.79,0.458,-0.724,-0.461,0.232
4885020.000000,0.076,-0.910,-0.483,-38.27,24.27,1.37,-12.56,41.71,-15.88,-169.52,-60.87,-108.95,0.456,-0.726,-0.461,0.229
4885030.000000,0.079,-0.884,-0.467,-30.61,21.40,8.24,-12.29,41.52,-16.00,-169.42,-60.49,-109.12,0.455,-0.728,-0.461,0.226
4885040.000000,0.079,-0.880,-0.484,-25.70,19.17,12.36,-12.79,41.60,-15.63,-169.43,-60.20,-109.38,0.454,-0.730,-0.460,0.224
4885050.000000,0.070,-0.878,-0.486,-24.93,19.88,13.94,-12.56,41.52,-15.13,-169.53,-59.97,-109.72,0.452,-0.732,-0.459,0.222
4885060.000000,0.057,-0.876,-0.483,-25.51,22.27,12.89,-12.29,41.64,-15.38,-169.64,-59.75,-110.08,0.451,-0.734,-0.458,0.220
4885070.000000,0.053,-0.878,-0.483,-26.47,24.35,12.41,-11.68,42.10,-14.75,-169.72,-59.52,-110.43,0.450,-0.735,-0.457,0.218
4885080.000000,0.054,-0.885,-0.478,-26.16,24.58,12.70,-11.46,41.75,-14.75,-169.78,-59.29,-110.77,0.449,-0.737,-0.455,0.216
4885090.000000,0.058,-0.886,-0.479,-24.89,25.11,12.24,-11.18,41.93,-14.21,-169.83,-59.06,-111.11,0.449,-0.739,-0.454,0.214
4885100.000000,0.062,-0.886,-0.484,-23.78,26.15,9.60,-10.92,42.17,-14.04,-169.88,-58.85,-111.45,0.448,-0.741,-0.453,0.212
4885110.000000,0.058,-0.877,-0.486,-23.79,29.00,6.12,-11.46,42.06,-13.92,-169.87,-58.66,-111.74,0.447,-0.743,-0.451,0.210
4885120.000000,0.065,-0.906,-0.500,-25.10,31.70,1.43,-10.81,41.25,-14.50,-169.77,-58.45,-111.95,0.447,-0.745,-0.450,0.208
4885130.000000,0.076,-0.902,-0.507,-26.37,29.26,-1.95,-10.92,41.29,-13.75,-169.58,-58.22,-112.09,0.446,-0.746,-0.449,0.205
4885140.000000,0.095,-0.893,-0.509,-26.22,26.61,-3.91,-11.14,40.88,-13.38,-169.34,-57.97,-112.16,0.446,-0.748,-0.449,0.202
4885150.000000,0.109,-0.889,-0.513,-27.55,25.26,-5.90,-10.96,41.06,-13.13,-169.10,-57.71,-112.19,0.445,-0.749,-0.448,0.199
4885160.000000,0.119,-0.890,-0.520,-29.82,25.41,-7.84,-10.73,41.02,-13.17,-168.84,-57.44,-112.18,0.445,-0.750,-0.448,0.196
4885170.000000,0.126,-0.876,-0.525,-32.72,25.39,-8.53,-10.54,42.21,-13.33,-168.56,-57.14,-112.15,0.444,-0.752,-0.448,0.193
4885180.000000,0.146,-0.862,-0.537,-33.94,27.25,-8.99,-10.50,42.29,-13.08,-168.28,-56.82,-112.12,0.443,-0.753,-0.448,0.190
4885190.000000,0.138,-0.855,-0.551,-33.32,26.39,-9.71,-10.58,42.29,-12.96,-167.98,-56.48,-112.08,0.442,-0.754,-0.448,0.186
4885200.000000,0.143,-0.834,-0.550,-32.99,23.84,-7.16,-10.23,42.33,-12.71,-167.67,-56.13,-112.03,0.441,-0.756,-0.448,0.183
4885210.000000,0.156,-0.817,-0.556,-34.39,22.33,-6.06,-10.08,42.29,-12.79,-167.42,-55.80,-112.02,0.440,-0.757,-0.449,0.180
4885220.000000,0.156,-0.813,-0.554,-34.30,22.33,-4.96,-10.23,42.29,-12.21,-167.21,-55.45,-112.04,0.439,-0.758,-0.449,0.177
4885230.000000,0.150,-0.821,-0.554,-32.38,22.33,-3.16,-9.81,42.25,-11.96,-167.02,-55.10,-112.09,0.437,-0.760,-0.449,0.174
4885240.000000,0.143,-0.828,-0.552,-31.15,22.29,-2.72,-10.08,42.43,-11.67,-166.85,-54.78,-112.15,0.436,-0.761,-0.449,0.171
4885250.000000,0.135,-0.826,-0.554,-30.61,22.45,-3.19,-10.04,42.33,-11.25,-166.68,-54.47,-112.22,0.435,-0.763,-0.448,0.168
4885260.000000,0.128,-0.797,-0.545,-30.60,22.63,-2.95,-10.08,42.52,-10.79,-166.51,-54.17,-112.29,0.434,-0.764,-0.448,0.165
4885270.000000,0.130,-0.819,-0.571,-31.88,26.19,-4.52,-10.73,42.85,-11.13,-166.34,-53.87,-112.36,0.433,-0.765,-0.448,0.162
4885280.000000,0.138,-0.820,-0.578,-31.72,26.17,-4.71,-10.46,42.56,-10.75,-166.14,-53.56,-112.42,0.432,-0.767,-0.448,0.159
4885290.000000,0.142,-0.802,-0.574,-29.17,23.28,-1.30,-10.73,42.63,-10.63,-165.92,-53.24,-112.48,0.431,-0.768,-0.447,0.156
4885300.000000,0.147,-0.789,-0.575,-28.91,22.06,1.28,-10.88,43.02,-10.88,-165.76,-52.95,-112.57,0.430,-0.770,-0.447,0.153
4885310.000000,0.141,-0.781,-0.578,-28.76,23.36,2.61,-10.88,42.98,-10.54,-165.65,-52.68,-112.71,0.429,-0.771,-0.447,0.151
4885320.000000,0.132,-0.772,-0.578,-27.27,24.54,2.56,-10.58,42.67,-10.25,-165.54,-52.41,-112.86,0.427,-0.772,-0.446,0.148
4885330.000000,0.128,-0.763,-0.583,-26.19,25.22,3.18,-11.04,42.17,-10.13,-165.42,-52.15,-113.02,0.427,-0.774,-0.445,0.146
4885340.000000,0.137,-0.778,-0.569,-25.75,26.32,4.83,-10.92,42.39,-9.71,-165.30,-51.91,-113.18,0.426,-0.775,-0.444,0.143
4885350.000000,0.152,-0.815,-0.556,-26.21,27.58,5.73,-10.88,42.71,-9.83,-165.18,-51.67,-113.36,0.425,-0.777,-0.443,0.140
4885360.000000,0.164,-0.843,-0.553,-28.43,30.56,5.43,-10.81,42.25,-9.75,-165.06,-51.44,-113.56,0.424,-0.778,-0.442,0.138
4885370.000000,0.165,-0.847,-0.561,-30.54,32.46,4.42,-10.42,42.98,-9.21,-164.92,-51.19,-113.76,0.423,-0.780,-0.441,0.135
4885380.000000,0.167,-0.832,-0.548,-31.91,33.26,3.27,-10.31,42.56,-9.13,-164.75,-50.92,-113.96,0.423,-0.781,-0.440,0.132
4885390.000000,0.182,-0.820,-0.575,-32.65,36.53,-0.55,-10.42,42.93,-9.08,-164.56,-50.63,-114.14,0.422,-0.783,-0.439,0.128
4885400.000000,0.185,-0.807,-0.613,-29.17,33.83,-4.94,-10.46,42.89,-8.83,-164.31,-50.32,-114.28,0.421,-0.785,-0.438,0.125
4885410.000000,0.185,-0.782,-0.611,-24.39,25.42,-5.27,-10.50,42.67,-8.38,-164.01,-50.03,-114.34,0.420,-0.786,-0.437,0.121
4885420.000000,0.184,-0.772,-0.616,-24.79,20.91,-4.17,-10.18,43.81,-8.29,-163.76,-49.78,-114.36,0.420,-0.787,-0.437,0.118
4885430.000000,0.177,-0.759,-0.615,-28.25,19.96,-3.58,-10.35,43.85,-8.21,-163.58,-49.54,-114.41,0.419,-0.788,-0.436,0.116
4885440.000000,0.180,-0.772,-0.611,-28.29,19.08,-3.86,-10.18,43.98,-8.21,-163.43,-49.27,-114.47,0.418,-0.789,-0.436,0.113
4885450.000000,0.180,-0.789,-0.605,-27.08,18.71,-4.87,-10.31,43.85,-7.88,-163.29,-48.99,-114.54,0.417,-0.790,-0.436,0.111
4885460.000000,0.190,-0.795,-0.622,-23.79,21.38,-6.24,-10.81,44.08,-7.67,-163.14,-48.72,-114.59,0.416,-0.791,-0.436,0.108
4885470.000000,0.158,-0.782,-0.646,-21.78,22.03,-7.21,-10.13,42.93,-7.50,-162.95,-48.47,-114.61,0.415,-0.792,-0.436,0.106
4885480.000000,0.175,-0.765,-0.663,-22.13,21.50,-2.48,-9.85,42.71,-6.88,-162.73,-48.25,-114.61,0.414,-0.792,-0.436,0.103
4885490.000000,0.181,-0.758,-0.658,-25.83,21.24,1.44,-10.04,42.98,-6.92,-162.56,-48.04,-114.67,0.413,-0.793,-0.435,0.101
4885500.000000,0.198,-0.755,-0.645,-26.08,21.87,4.36,-10.04,42.67,-7.25,-162.45,-47.80,-114.80,0.412,-0.795,-0.435,0.098
4885510.000000,0.213,-0.764,-0.647,-24.09,19.91,6.50,-10.13,42.29,-6.96,-162.36,-47.57,-114.98,0.411,-0.796,-0.434,0.096
4885520.000000,0.219,-0.774,-0.642,-21.98,17.03,7.64,-10.18,43.48,-6.58,-162.31,-47.36,-115.18,0.411,-0.797,-0.433,0.094
4885530.000000,0.220,-0.790,-0.630,-22.47,14.97,7.76,-10.54,43.35,-6.33,-162.29,-47.17,-115.38,0.410,-0.798,-0.432,0.092
4885540.000000,0.217,-0.784,-0.621,-24.55,14.09,7.23,-9.81,43.43,-6.25,-162.28,-46.99,-115.59,0.409,-0.799,-0.431,0.090
4885550.000000,0.215,-0.771,-0.612,-26.10,12.81,6.50,-10.13,43.39,-6.04,-162.29,-46.79,-115.80,0.408,-0.801,-0.430,0.089
4885560.000000,0.206,-0.756,-0.620,-27.11,12.61,5.23,-10.08,43.67,-5.92,-162.31,-46.58,-116.00,0.406,-0.802,-0.429,0.087
4885570.000000,0.206,-0.751,-0.619,-27.87,12.34,4.05,-10.35,43.06,-5.96,-162.32,-46.35,-116.19,0.405,-0.803,-0.429,0.086
4885580.000000,0.207,-0.742,-0.627,-28.99,12.20,3.51,-10.64,42.52,-5.58,-162.32,-46.11,-116.37,0.403,-0.804,-0.428,0.084
4885590.000000,0.206,-0.739,-0.634,-29.97,13.08,3.27,-10.77,42.48,-5.38,-162.33,-45.85,-116.54,0.402,-0.806,-0.428,0.082
4885600.000000,0.205,-0.721,-0.640,-31.09,13.74,3.30,-10.88,42.63,-5.17,-162.32,-45.58,-116.72,0.400,-0.807,-0.427,0.080
4885610.000000,0.211,-0.708,-0.651,-31.44,13.55,2.92,-11.10,42.75,-4.96,-162.31,-45.31,-116.90,0.399,-0.808,-0.427,0.078
4885620.000000,0.212,-0.700,-0.657,-31.28,13.88,2.37,-10.96,42.79,-4.67,-162.30,-45.02,-117.07,0.397,-0.809,-0.426,0.076
4885630.000000,0.222,-0.702,-0.663,-30.82,13.92,1.81,-10.68,42.85,-4.21,-162.28,-44.74,-117.24,0.395,-0.811,-0.426,0.074
4885640.000000,0.223,-0.706,-0.661,-31.10,14.12,1.75,-10.68,42.79,-4.38,-162.25,-44.45,-117.39,0.394,-0.812,-0.425,0.072
4885651.000000,0.245,-0.693,-0.653,-30.94,15.43,1.39,-11.04,42.67,-3.67,-162.21,-44.17,-117.55,0.392,-0.813,-0.425,0.070
4885661.000000,0.222,-0.708,-0.659,-29.01,17.92,-1.35,-11.00,43.02,-3.79,-162.16,-43.88,-117.69,0.390,-0.814,-0.424,0.068
4885671.000000,0.214,-0.685,-0.667,-29.95,16.02,0.18,-10.77,43.21,-3.83,-162.05,-43.61,-117.80,0.389,-0.815,-0.424,0.066
4885681.000000,0.224,-0.678,-0.661,-33.07,14.96,2.38,-10.96,43.43,-3.54,-161.98,-43.33,-117.93,0.388,-0.816,-0.424,0.063
4885691.000000,0.235,-0.686,-0.663,-34.84,15.64,2.48,-10.92,43.48,-3.21,-161.94,-43.04,-118.09,0.386,-0.818,-0.423,0.061
4885701.000000,0.242,-0.694,-0.671,-35.26,16.52,1.46,-11.10,43.39,-3.21,-161.91,-42.72,-118.27,0.384,-0.819,-0.423,0.059
4885711.000000,0.246,-0.685,-0.675,-35.47,16.99,0.47,-10.68,43.17,-2.75,-161.85,-42.39,-118.44,0.382,-0.820,-0.422,0.056
4885721.000000,0.243,-0.667,-0.682,-35.99,16.90,0.76,-10.96,42.67,-2.58,-161.78,-42.07,-118.59,0.380,-0.821,-0.422,0.054
4885731.000000,0.239,-0.643,-0.692,-35.84,17.25,2.06,-10.77,42.52,-2.38,-161.72,-41.73,-118.75,0.378,-0.823,-0.421,0.051
4885741.000000,0.235,-0.637,-0.691,-34.75,17.78,3.40,-10.50,42.85,-2.13,-161.66,-41.40,-118.92,0.376,-0.824,-0.421,0.049
4885751.000000,0.234,-0.629,-0.688,-33.32,18.25,5.06,-10.50,42.56,-2.00,-161.60,-41.08,-119.10,0.374,-0.825,-0.420,0.046
4885761.000000,0.234,-0.620,-0.691,-31.71,18.43,5.29,-10.46,42.75,-1.83,-161.55,-40.78,-119.30,0.373,-0.827,-0.419,0.044
4885771.000000,0.234,-0.620,-0.694,-29.78,17.24,4.77,-10.88,42.67,-1.50,-161.50,-40.50,-119.50,0.371,-0.828,-0.418,0.042
4885781.000000,0.231,-0.636,-0.690,-28.03,16.42,3.77,-11.10,42.79,-1.29,-161.44,-40.23,-119.69,0.370,-0.829,-0.418,0.040
4885791.000000,0.215,-0.650,-0.693,-26.95,16.42,1.65,-11.10,43.21,-0.67,-161.38,-39.97,-119.85,0.368,-0.830,-0.417,0.038
4885801.000000,0.197,-0.639,-0.685,-27.33,16.90,-0.82,-11.23,42.52,-0.67,-161.31,-39.73,-119.99,0.367,-0.831,-0.416,0.035
4885811.000000,0.189,-0.629,-0.692,-27.77,17.55,-1.49,-11.46,42.79,-0.75,-161.21,-39.48,-120.10,0.365,-0.832,-0.416,0.033
4885821.000000,0.187,-0.629,-0.688,-27.19,18.92,-1.12,-10.96,42.52,-0.25,-161.11,-39.22,-120.21,0.364,-0.833,-0.415,0.031
4885831.000000,0.201,-0.628,-0.687,-26.50,19.87,-1.00,-11.18,42.56,-0.17,-161.00,-38.97,-120.31,0.363,-0.834,-0.415,0.029
4885841.000000,0.237,-0.643,-0.690,-26.36,19.10,-1.41,-11.75,42.29,-0.08,-160.87,-38.73,-120.42,0.362,-0.835,-0.414,0.027
4885851.000000,0.259,-0.659,-0.699,-26.93,17.37,-1.63,-11.18,42.52,0.21,-160.75,-38.48,-120.52,0.360,-0.836,-0.414,0.024
4885861.000000,0.271,-0.651,-0.703,-27.72,15.27,-3.87,-11.23,42.43,0.33,-160.64,-38.24,-120.61,0.359,-0.836,-0.413,0.022
4885871.000000,0.270,-0.650,-0.702,-28.11,12.80,-6.77,-11.38,41.56,0.58,-160.52,-37.97,-120.69,0.358,-0.837,-0.413,0.020
4885881.000000,0.261,-0.650,-0.699,-28.59,12.01,-9.39,-11.50,41.79,0.79,-160.42,-37.69,-120.73,0.356,-0.838,-0.413,0.018
4885891.000000,0.244,-0.650,-0.700,-29.56,13.05,-11.63,-11.83,41.83,0.75,-160.30,-37.40,-120.74,0.355,-0.838,-0.414,0.015
4885901.000000,0.232,-0.629,-0.693,-31.39,14.52,-13.41,-11.50,41.79,1.42,-160.17,-37.09,-120.73,0.353,-0.839,-0.414,0.013
4885911.000000,0.239,-0.606,-0.701,-33.59,15.83,-14.87,-12.06,41.64,1.25,-160.01,-36.77,-120.71,0.351,-0.839,-0.415,0.011
4885921.000000,0.264,-0.599,-0.708,-34.20,18.24,-14.42,-12.06,41.64,1.25,-159.84,-36.42,-120.68,0.350,-0.840,-0.415,0.008
4885931.000000,0.281,-0.607,-0.723,-32.85,20.40,-12.73,-11.68,42.48,2.04,-159.65,-36.06,-120.66,0.348,-0.840,-0.416,0.005
4885941.000000,0.290,-0.606,-0.732,-30.91,20.95,-11.81,-11.92,42.25,2.13,-159.45,-35.71,-120.65,0.346,-0.841,-0.416,0.002
4885951.000000,0.300,-0.578,-0.729,-28.85,21.72,-11.40,-12.14,42.29,2.17,-159.24,-35.38,-120.65,0.345,-0.841,-0.416,-0.001
4885961.000000,0.311,-0.572,-0.762,-24.54,22.16,-12.67,-12.33,42.21,2.75,-159.02,-35.08,-120.65,0.343,-0.842,-0.417,-0.004
4885971.000000,0.318,-0.573,-0.758,-23.41,18.33,-13.22,-12.33,42.21,2.75,-158.78,-34.80,-120.61,0.342,-0.842,-0.417,-0.007
4885981.000000,0.324,-0.599,-0.753,-26.14,18.76,-11.56,-12.67,41.79,2.58,-158.56,-34.54,-120.57,0.341,-0.842,-0.417,-0.010
4885991.000000,0.324,-0.591,-0.753,-28.97,19.31,-11.87,-12.79,42.10,3.04,-158.36,-34.26,-120.55,0.340,-0.843,-0.417,-0.012
4886001.000000,0.320,-0.567,-0.763,-29.56,17.87,-14.31,-13.06,42.02,3.13,-158.16,-33.95,-120.54,0.339,-0.843,-0.418,-0.015
4886011.000000,0.315,-0.537,-0.780,-29.58,17.15,-16.84,-13.43,41.93,3.17,-157.97,-33.63,-120.52,0.337,-0.843,-0.418,-0.018
4886021.000000,0.321,-0.519,-0.787,-28.58,17.40,-16.62,-13.43,41.93,3.17,-157.76,-33.30,-120.47,0.336,-0.843,-0.419,-0.021
4886031.000000,0.337,-0.523,-0.782,-27.14,17.88,-14.37,-13.43,41.60,4.08,-157.56,-32.97,-120.41,0.334,-0.844,-0.419,-0.024
4886041.000000,0.354,-0.551,-0.781,-26.00,17.43,-12.06,-13.81,41.52,4.21,-157.37,-32.66,-120.38,0.333,-0.844,-0.420,-0.026
4886051.000000,0.359,-0.573,-0.775,-25.60,15.88,-9.76,-13.89,41.48,4.46,-157.18,-32.36,-120.36,0.332,-0.844,-0.420,-0.029
4886061.000000,0.344,-0.582,-0.773,-26.96,14.60,-9.32,-14.17,41.38,4.75,-157.02,-32.09,-120.36,0.330,-0.844,-0.421,-0.031
4886071.000000,0.330,-0.564,-0.774,-28.90,13.74,-10.27,-14.17,41.38,4.75,-156.88,-31.81,-120.38,0.329,-0.845,-0.421,-0.034
4886081.000000,0.322,-0.530,-0.780,-30.26,13.70,-10.07,-14.54,41.98,5.17,-156.75,-31.52,-120.41,0.327,-0.845,-0.421,-0.036
4886091.000000,0.320,-0.493,-0.753,-30.78,14.91,-8.42,-14.35,41.98,4.67,-156.63,-31.21,-120.44,0.326,-0.846,-0.421,-0.038
4886101.000000,0.339,-0.539,-0.808,-29.17,20.51,-8.05,-14.81,42.06,5.08,-156.51,-30.90,-120.49,0.324,-0.846,-0.421,-0.041
4886111.000000,0.342,-0.530,-0.792,-28.27,18.51,-7.23,-15.23,41.75,5.46,-156.34,-30.59,-120.54,0.322,-0.847,-0.421,-0.044
4886121.000000,0.353,-0.526,-0.791,-30.05,18.21,-5.40,-15.23,41.75,5.46,-156.18,-30.31,-120.59,0.321,-0.847,-0.421,-0.046
4886131.000000,0.349,-0.520,-0.792,-31.67,17.25,-6.51,-15.42,41.64,6.00,-156.04,-30.02,-120.67,0.319,-0.848,-0.421,-0.049
4886141.000000,0.338,-0.508,-0.783,-30.13,17.09,-8.30,-15.54,41.83,5.92,-155.91,-29.71,-120.76,0.318,-0.848,-0.421,-0.051
4886151.000000,0.330,-0.504,-0.787,-29.17,17.66,-10.26,-15.96,41.42,6.13,-155.77,-29.40,-120.81,0.316,-0.849,-0.421,-0.054
4886161.000000,0.327,-0.489,-0.784,-30.17,18.64,-10.47,-16.06,41.64,6.42,-155.61,-29.10,-120.85,0.314,-0.849,-0.421,-0.057
4886171.000000,0.340,-0.460,-0.798,-32.19,17.15,-8.69,-16.06,41.64,6.42,-155.44,-28.79,-120.88,0.313,-0.849,-0.421,-0.059
4886181.000000,0.354,-0.459,-0.795,-33.38,16.30,-7.44,-15.54,40.18,7.13,-155.30,-28.46,-120.94,0.311,-0.850,-0.421,-0.062
4886191.000000,0.360,-0.456,-0.787,-33.24,14.99,-8.19,-15.60,40.52,6.75,-155.18,-28.13,-121.03,0.309,-0.850,-0.421,-0.065
4886201.000000,0.353,-0.453,-0.789,-32.52,13.95,-11.81,-15.54,40.52,7.29,-155.07,-27.79,-121.10,0.307,-0.851,-0.421,-0.067
4886211.000000,0.351,-0.434,-0.799,-32.54,14.40,-15.54,-15.83,40.68,7.83,-154.95,-27.45,-121.14,0.305,-0.851,-0.421,-0.070
4886221.000000,0.357,-0.441,-0.797,-31.65,15.28,-16.99,-15.83,40.68,7.83,-154.81,-27.10,-121.15,0.303,-0.851,-0.422,-0.072
4886231.000000,0.370,-0.446,-0.790,-30.90,17.58,-16.60,-15.77,40.60,8.17,-154.66,-26.74,-121.13,0.301,-0.852,-0.422,-0.075
4886241.000000,0.391,-0.456,-0.794,-31.14,18.28,-16.17,-15.64,40.38,8.38,-154.48,-26.38,-121.11,0.300,-0.852,-0.423,-0.078
4886251.000000,0.390,-0.458,-0.792,-32.02,17.57,-17.09,-15.73,40.23,8.54,-154.30,-26.04,-121.10,0.298,-0.852,-0.423,-0.081
4886261.000000,0.394,-0.453,-0.794,-31.83,16.44,-18.72,-15.73,40.23,8.54,-154.11,-25.68,-121.09,0.296,-0.852,-0.424,-0.084
4886271.000000,0.398,-0.442,-0.789,-31.59,16.02,-20.11,-15.73,40.23,8.54,-153.93,-25.32,-121.06,0.294,-0.852,-0.425,-0.086
4886281.000000,0.400,-0.425,-0.801,-31.92,15.63,-20.15,-17.14,41.14,8.67,-153.75,-24.96,-121.01,0.292,-0.852,-0.425,-0.089
4886291.000000,0.403,-0.398,-0.805,-32.06,14.59,-17.42,-17.14,41.14,8.67,-153.57,-24.59,-120.97,0.290,-0.852,-0.426,-0.092
4886301.000000,0.408,-0.373,-0.818,-31.15,12.28,-14.76,-17.14,41.14,8.67,-153.42,-24.23,-120.95,0.288,-0.852,-0.427,-0.095
4886311.000000,0.438,-0.372,-0.821,-28.47,9.07,-13.13,-17.14,41.14,8.67,-153.30,-23.88,-120.96,0.286,-0.852,-0.427,-0.097
4886321.000000,0.460,-0.386,-0.827,-24.71,5.35,-10.92,-18.02,40.42,9.96,-153.21,-23.56,-120.97,0.285,-0.852,-0.428,-0.100
4886331.000000,0.441,-0.392,-0.826,-22.52,2.25,-12.31,-18.89,40.46,9.88,-153.15,-23.27,-120.98,0.283,-0.852,-0.429,-0.101
4886341.000000,0.427,-0.373,-0.826,-21.46,-2.56,-17.44,-19.00,40.79,9.67,-153.12,-23.02,-120.97,0.281,-0.852,-0.429,-0.103
4886351.000000,0.408,-0.350,-0.831,-20.64,-6.64,-20.06,-19.46,40.46,10.25,-153.11,-22.75,-120.92,0.279,-0.852,-0.430,-0.104
4886361.000000,0.392,-0.330,-0.827,-19.70,-8.56,-22.17,-19.46,40.42,10.21,-153.14,-22.47,-120.83,0.277,-0.852,-0.432,-0.105
4886371.000000,0.381,-0.359,-0.827,-17.56,-11.52,-27.61,-19.46,40.64,10.42,-153.18,-22.19,-120.71,0.275,-0.852,-0.433,-0.105
4886381.000000,0.395,-0.375,-0.835,-16.30,-16.35,-33.98,-19.63,40.56,10.46,-153.23,-21.91,-120.54,0.273,-0.851,-0.435,-0.106
4886391.000000,0.396,-0.369,-0.835,-16.20,-18.90,-34.64,-19.27,40.18,10.54,-153.30,-21.61,-120.30,0.271,-0.850,-0.438,-0.106
4886401.000000,0.385,-0.366,-0.824,-14.98,-21.92,-35.75,-19.58,40.18,10.92,-153.39,-21.31,-120.05,0.269,-0.850,-0.441,-0.106
4886411.000000,0.389,-0.345,-0.820,-15.35,-22.18,-38.05,-19.77,40.18,11.17,-153.52,-21.02,-119.78,0.267,-0.849,-0.444,-0.106
4886421.000000,0.377,-0.327,-0.826,-18.98,-16.89,-36.39,-20.18,40.18,11.04,-153.64,-20.72,-119.49,0.264,-0.848,-0.447,-0.106
4886431.000000,0.358,-0.303,-0.824,-23.73,-8.77,-32.02,-20.46,39.83,11.25,-153.73,-20.39,-119.23,0.262,-0.847,-0.450,-0.106
4886441.000000,0.368,-0.285,-0.824,-27.29,-2.04,-27.81,-20.38,39.54,11.42,-153.76,-20.04,-119.03,0.259,-0.847,-0.452,-0.107
4886451.000000,0.383,-0.289,-0.839,-28.75,2.69,-21.55,-20.96,39.54,12.00,-153.74,-19.68,-118.89,0.257,-0.846,-0.454,-0.108
4886461.000000,0.402,-0.318,-0.840,-28.70,6.42,-16.76,-20.68,39.31,11.58,-153.70,-19.32,-118.81,0.255,-0.846,-0.456,-0.110
4886471.000000,0.408,-0.347,-0.827,-28.99,9.13,-14.14,-21.14,39.14,11.96,-153.63,-18.98,-118.78,0.253,-0.846,-0.457,-0.112
4886481.000000,0.403,-0.346,-0.821,-30.23,11.42,-10.85,-19.77,39.73,12.00,-153.55,-18.65,-118.78,0.251,-0.846,-0.457,-0.114
4886491.000000,0.392,-0.305,-0.823,-31.34,14.13,-6.01,-20.00,39.73,12.04,-153.45,-18.34,-118.82,0.249,-0.846,-0.457,-0.116
4886501.000000,0.409,-0.258,-0.826,-31.62,16.57,0.89,-20.18,39.88,12.33,-153.34,-18.04,-118.90,0.247,-0.846,-0.457,-0.119
4886511.000000,0.438,-0.241,-0.847,-30.44,18.77,6.12,-20.18,39.42,12.38,-153.22,-17.76,-119.05,0.245,-0.847,-0.457,-0.121
4886521.000000,0.443,-0.236,-0.872,-29.60,19.81,6.89,-20.38,39.54,12.71,-153.10,-17.51,-119.25,0.244,-0.847,-0.456,-0.124
4886531.000000,0.427,-0.247,-0.872,-27.57,18.22,3.47,-20.68,39.14,13.04,-152.96,-17.27,-119.45,0.243,-0.848,-0.454,-0.126
4886541.000000,0.435,-0.234,-0.878,-26.49,12.43,-2.28,-20.46,39.04,13.13,-152.83,-17.03,-119.62,0.241,-0.848,-0.453,-0.128
4886551.000000,0.447,-0.236,-0.858,-27.19,9.72,-6.70,-20.96,38.73,13.29,-152.73,-16.78,-119.74,0.240,-0.849,-0.453,-0.131
4886561.000000,0.446,-0.249,-0.855,-27.19,9.84,-10.18,-20.96,38.92,13.29,-152.65,-16.51,-119.81,0.238,-0.849,-0.453,-0.133
4886571.000000,0.451,-0.258,-0.855,-26.26,9.07,-14.55,-20.83,38.92,13.63,-152.56,-16.21,-119.85,0.236,-0.849,-0.453,-0.135
4886581.000000,0.463,-0.264,-0.851,-27.04,8.87,-17.44,-21.64,38.68,13.92,-152.47,-15.91,-119.85,0.234,-0.849,-0.454,-0.137
4886591.000000,0.466,-0.266,-0.850,-28.85,10.85,-17.40,-21.83,38.46,14.17,-152.37,-15.59,-119.82,0.233,-0.849,-0.454,-0.139
4886601.000000,0.470,-0.258,-0.862,-28.78,12.77,-16.28,-22.06,38.18,14.08,-152.26,-15.25,-119.79,0.231,-0.848,-0.455,-0.141
4886611.000000,0.486,-0.241,-0.871,-28.19,14.40,-13.78,-22.43,38.77,14.33,-152.13,-14.92,-119.78,0.229,-0.848,-0.456,-0.143
4886621.000000,0.519,-0.211,-0.874,-26.83,15.33,-13.40,-22.43,38.31,14.58,-151.98,-14.61,-119.79,0.227,-0.848,-0.456,-0.146
4886631.000000,0.525,-0.219,-0.871,-24.66,18.60,-14.94,-22.85,38.42,14.79,-151.83,-14.30,-119.80,0.226,-0.848,-0.456,-0.148
4886641.000000,0.507,-0.224,-0.866,-22.04,21.00,-13.28,-22.93,38.50,14.96,-151.64,-14.01,-119.78,0.224,-0.847,-0.457,-0.151
4886651.000000,0.489,-0.223,-0.849,-20.53,20.75,-11.64,-23.25,38.35,15.33,-151.43,-13.74,-119.77,0.223,-0.847,-0.457,-0.154
4886661.000000,0.479,-0.214,-0.849,-20.02,18.91,-11.73,-23.54,38.73,15.17,-151.21,-13.50,-119.76,0.222,-0.847,-0.457,-0.156
4886671.000000,0.468,-0.212,-0.856,-17.59,17.73,-13.20,-23.35,38.08,15.25,-151.02,-13.27,-119.76,0.221,-0.846,-0.458,-0.159
4886681.000000,0.457,-0.224,-0.864,-17.45,18.14,-11.04,-23.17,38.04,15.38,-150.83,-13.05,-119.73,0.221,-0.846,-0.458,-0.161
4886691.000000,0.443,-0.207,-0.860,-18.39,17.09,-8.61,-23.13,37.85,15.58,-150.65,-12.84,-119.72,0.220,-0.846,-0.458,-0.163
4886701.000000,0.446,-0.220,-0.848,-19.04,17.26,-8.52,-23.21,38.13,15.83,-150.48,-12.64,-119.73,0.219,-0.845,-0.458,-0.166
4886711.000000,0.475,-0.234,-0.841,-19.27,19.42,-5.58,-23.35,38.04,15.83,-150.32,-12.43,-119.75,0.218,-0.845,-0.458,-0.168
4886721.000000,0.482,-0.241,-0.837,-20.54,22.54,-4.06,-23.58,37.77,15.92,-150.14,-12.24,-119.80,0.218,-0.845,-0.458,-0.170
4886731.000000,0.485,-0.216,-0.846,-22.47,27.15,-3.14,-24.18,37.35,16.04,-149.94,-12.05,-119.86,0.217,-0.845,-0.458,-0.172
4886741.000000,0.493,-0.218,-0.846,-25.21,31.05,0.63,-24.13,37.08,15.88,-149.69,-11.85,-119.95,0.216,-0.845,-0.457,-0.175
4886751.000000,0.518,-0.214,-0.855,-25.35,32.25,3.98,-24.42,37.04,16.58,-149.41,-11.64,-120.08,0.216,-0.845,-0.456,-0.178
4886761.000000,0.526,-0.205,-0.854,-23.34,31.64,5.57,-24.35,37.13,16.58,-149.13,-11.45,-120.24,0.215,-0.845,-0.455,-0.182
4886771.000000,0.530,-0.198,-0.869,-21.33,31.63,8.00,-24.92,36.81,16.58,-148.84,-11.27,-120.41,0.215,-0.845,-0.453,-0.185
4886781.000000,0.540,-0.205,-0.861,-20.44,29.55,10.21,-23.96,36.89,16.92,-148.56,-11.13,-120.59,0.215,-0.845,-0.452,-0.188
4886791.000000,0.585,-0.207,-0.859,-19.20,25.39,10.81,-24.13,37.04,16.96,-148.30,-11.01,-120.79,0.215,-0.845,-0.450,-0.191
4886801.000000,0.606,-0.221,-0.881,-19.17,18.61,11.96,-24.23,36.81,17.04,-148.08,-10.90,-120.99,0.214,-0.846,-0.449,-0.193
4886811.000000,0.587,-0.219,-0.876,-20.31,8.46,7.62,-24.50,37.31,17.13,-147.92,-10.80,-121.19,0.214,-0.846,-0.447,-0.195
4886821.000000,0.547,-0.203,-0.856,-20.34,-1.17,-2.67,-24.54,36.67,17.17,-147.85,-10.68,-121.37,0.213,-0.847,-0.446,-0.197
4886831.000000,0.501,-0.212,-0.841,-21.18,-3.02,-8.70,-25.27,36.35,17.38,-147.87,-10.50,-121.47,0.211,-0.847,-0.446,-0.197
4886841.000000,0.476,-0.215,-0.836,-21.26,-0.26,-5.66,-25.96,35.98,17.50,-147.90,-10.28,-121.51,0.210,-0.847,-0.446,-0.198
4886851.000000,0.477,-0.207,-0.834,-20.62,4.58,2.15,-25.68,35.71,17.46,-147.92,-10.08,-121.57,0.208,-0.847,-0.446,-0.199
4886861.000000,0.497,-0.197,-0.842,-20.06,9.56,9.27,-25.64,35.56,17.96,-147.91,-9.91,-121.70,0.207,-0.848,-0.446,-0.200
4886871.000000,0.509,-0.197,-0.844,-18.58,12.31,14.46,-25.33,35.63,17.83,-147.85,-9.79,-121.88,0.206,-0.848,-0.444,-0.201
4886881.000000,0.514,-0.197,-0.833,-17.52,12.41,14.04,-24.96,35.98,18.00,-147.77,-9.70,-122.10,0.205,-0.849,-0.443,-0.203
4886891.000000,0.509,-0.183,-0.832,-17.36,12.65,11.09,-24.92,35.71,17.96,-147.68,-9.63,-122.32,0.204,-0.850,-0.441,-0.204
4886901.000000,0.509,-0.164,-0.839,-16.95,13.02,8.74,-25.04,35.63,18.08,-147.59,-9.56,-122.51,0.204,-0.850,-0.440,-0.205
4886911.000000,0.513,-0.146,-0.845,-17.60,13.35,5.85,-25.10,35.25,17.83,-147.49,-9.47,-122.68,0.203,-0.851,-0.439,-0.207
4886921.000000,0.520,-0.135,-0.841,-16.62,13.15,3.36,-25.00,35.21,18.42,-147.39,-9.36,-122.83,0.203,-0.851,-0.438,-0.208
4886931.000000,0.548,-0.167,-0.830,-13.87,13.63,3.40,-25.04,35.06,18.58,-147.28,-9.23,-122.95,0.202,-0.851,-0.437,-0.210
4886941.000000,0.584,-0.207,-0.827,-12.95,13.12,6.90,-25.56,35.52,18.29,-147.17,-9.12,-123.06,0.201,-0.851,-0.436,-0.211
4886951.000000,0.580,-0.209,-0.821,-13.42,9.24,7.38,-25.68,35.39,18.96,-147.06,-9.05,-123.19,0.201,-0.851,-0.435,-0.213
4886961.000000,0.571,-0.194,-0.815,-15.06,6.09,1.54,-25.83,35.21,18.79,-146.97,-8.98,-123.32,0.201,-0.852,-0.434,-0.214
4886971.000000,0.550,-0.176,-0.815,-15.39,6.70,-4.06,-25.56,34.93,18.92,-146.92,-8.88,-123.42,0.200,-0.852,-0.434,-0.215
4886981.000000,0.549,-0.162,-0.826,-14.77,8.26,-6.83,-25.00,35.56,18.96,-146.86,-8.74,-123.48,0.199,-0.852,-0.433,-0.216
4886991.000000,0.560,-0.177,-0.838,-13.77,10.03,-6.47,-25.23,34.56,19.08,-146.78,-8.58,-123.50,0.198,-0.852,-0.433,-0.217
4887001.000000,0.552,-0.174,-0.819,-18.58,10.54,-6.29,-25.33,34.98,19.21,-146.69,-8.43,-123.53,0.197,-0.852,-0.433,-0.218
4887011.000000,0.538,-0.162,-0.813,-20.27,9.41,-7.36,-25.23,34.79,19.46,-146.59,-8.26,-123.57,0.196,-0.852,-0.433,-0.220
4887021.000000,0.511,-0.140,-0.806,-20.76,10.59,-7.72,-25.68,34.71,19.54,-146.50,-8.06,-123.62,0.195,-0.851,-0.433,-0.222
4887031.000000,0.510,-0.092,-0.797,-20.98,13.91,-3.93,-25.60,34.71,19.38,-146.40,-7.85,-123.67,0.194,-0.851,-0.433,-0.223
4887041.000000,0.511,-0.122,-0.814,-19.35,17.13,-0.69,-25.46,34.79,19.33,-146.28,-7.65,-123.75,0.193,-0.851,-0.433,-0.225
4887051.000000,0.523,-0.105,-0.820,-18.57,19.13,1.61,-25.64,34.10,19.29,-146.13,-7.48,-123.85,0.192,-0.851,-0.432,-0.227
4887061.000000,0.551,-0.071,-0.809,-22.66,20.72,3.49,-25.64,34.48,19.42,-145.95,-7.34,-123.97,0.191,-0.851,-0.432,-0.229
4887071.000000,0.534,-0.074,-0.822,-14.80,22.32,4.33,-25.79,34.02,19.83,-145.77,-7.17,-124.12,0.190,-0.851,-0.431,-0.232
4887081.000000,0.523,-0.068,-0.818,-9.32,26.90,11.23,-26.38,34.38,19.92,-145.57,-7.06,-124.25,0.190,-0.851,-0.430,-0.234
4887091.000000,0.574,-0.146,-0.784,-9.44,30.71,17.82,-26.60,34.02,19.79,-145.32,-7.02,-124.39,0.190,-0.851,-0.428,-0.236
4887101.000000,0.564,-0.180,-0.809,-7.08,30.15,11.44,-26.52,34.14,19.88,-145.05,-7.04,-124.58,0.191,-0.851,-0.426,-0.238
4887111.000000,0.591,-0.150,-0.784,-17.16,27.06,4.36,-26.89,33.98,20.25,-144.76,-7.06,-124.73,0.192,-0.851,-0.425,-0.240
4887121.000000,0.575,-0.133,-0.795,-17.82,23.82,-4.77,-26.67,33.83,19.96,-144.51,-6.97,-124.86,0.192,-0.851,-0.424,-0.243
4887131.000000,0.561,-0.114,-0.792,-18.42,24.48,-9.84,-27.17,33.56,20.13,-144.27,-6.81,-124.94,0.192,-0.851,-0.423,-0.245
4887141.000000,0.561,-0.118,-0.792,-17.06,25.21,-7.22,-27.63,33.75,20.17,-144.03,-6.61,-124.97,0.191,-0.850,-0.423,-0.248
4887151.000000,0.574,-0.111,-0.791,-14.83,24.05,-5.14,-28.13,33.29,20.42,-143.78,-6.43,-125.01,0.191,-0.850,-0.423,-0.251
4887161.000000,0.602,-0.120,-0.775,-13.76,21.74,-3.44,-28.31,33.33,20.29,-143.55,-6.28,-125.06,0.190,-0.849,-0.422,-0.253
4887171.000000,0.607,-0.122,-0.762,-12.68,20.02,-3.27,-28.13,33.52,20.58,-143.34,-6.15,-125.11,0.190,-0.849,-0.422,-0.255
4887181.000000,0.602,-0.106,-0.765,-11.16,18.63,-5.05,-28.35,33.92,20.67,-143.14,-6.03,-125.16,0.190,-0.849,-0.421,-0.257
4887191.000000,0.589,-0.079,-0.778,-9.31,18.29,-5.37,-28.39,33.42,20.83,-142.94,-5.92,-125.19,0.190,-0.848,-0.421,-0.259
4887201.000000,0.574,-0.080,-0.782,-8.51,20.20,-4.09,-28.50,33.23,20.46,-142.76,-5.81,-125.20,0.189,-0.848,-0.421,-0.261
4887211.000000,0.577,-0.111,-0.776,-7.05,22.75,1.34,-28.77,33.64,21.08,-142.56,-5.71,-125.22,0.189,-0.847,-0.421,-0.263
4887221.000000,0.569,-0.094,-0.761,-4.59,25.74,9.62,-28.73,33.75,20.96,-142.35,-5.65,-125.27,0.190,-0.847,-0.420,-0.265
4887231.000000,0.604,-0.109,-0.700,-5.73,30.22,16.34,-28.85,33.29,20.79,-142.10,-5.67,-125.37,0.190,-0.847,-0.419,-0.267
4887241.000000,0.572,-0.146,-0.751,5.71,33.02,18.81,-29.27,33.38,21.38,-141.83,-5.72,-125.52,0.191,-0.847,-0.417,-0.269
4887251.000000,0.573,-0.154,-0.741,2.71,37.71,24.34,-29.04,33.64,21.67,-141.51,-5.87,-125.65,0.193,-0.847,-0.416,-0.271
4887261.000000,0.590,-0.127,-0.749,-2.95,40.27,30.50,-29.08,33.68,21.08,-141.16,-6.05,-125.81,0.196,-0.846,-0.413,-0.273
4887271.000000,0.607,-0.187,-0.757,-2.53,42.10,35.53,-29.18,33.75,21.08,-140.78,-6.23,-126.06,0.198,-0.847,-0.410,-0.275
4887281.000000,0.641,-0.194,-0.741,-11.96,44.13,31.77,-28.96,33.46,20.96,-140.40,-6.44,-126.35,0.200,-0.847,-0.407,-0.278
4887291.000000,0.694,-0.167,-0.708,-16.31,43.64,37.43,-29.46,33.10,20.83,-140.00,-6.57,-126.66,0.201,-0.847,-0.404,-0.281
4887301.000000,0.701,-0.156,-0.730,-7.51,40.66,23.34,-29.46,33.02,21.13,-139.61,-6.69,-127.05,0.203,-0.848,-0.400,-0.284
4887311.000000,0.695,-0.154,-0.741,-0.69,37.49,3.29,-29.54,33.33,21.21,-139.22,-6.80,-127.30,0.204,-0.848,-0.397,-0.287
4887321.000000,0.691,-0.157,-0.729,4.07,32.43,-8.98,-29.60,33.29,21.29,-138.84,-6.83,-127.36,0.206,-0.847,-0.396,-0.290
4887331.000000,0.668,-0.139,-0.713,7.95,31.21,-13.41,-29.23,33.52,21.13,-138.50,-6.81,-127.28,0.207,-0.846,-0.396,-0.292
4887341.000000,0.648,-0.088,-0.598,7.03,36.78,-12.05,-29.83,33.79,21.00,-138.17,-6.79,-127.13,0.208,-0.844,-0.396,-0.295
4887351.000000,0.686,-0.135,-0.716,12.41,48.54,-6.78,-29.88,33.42,21.00,-137.79,-6.76,-126.99,0.210,-0.843,-0.397,-0.297
4887361.000000,0.641,-0.131,-0.721,16.19,48.47,-2.14,-29.77,33.64,21.42,-137.30,-6.80,-126.85,0.212,-0.841,-0.397,-0.300
4887371.000000,0.624,-0.105,-0.694,10.94,48.57,4.30,-30.64,33.29,20.92,-136.80,-6.90,-126.72,0.215,-0.840,-0.396,-0.303
4887381.000000,0.616,-0.106,-0.698,10.53,47.87,13.14,-30.75,33.64,20.50,-136.30,-7.01,-126.67,0.217,-0.838,-0.395,-0.306
4887391.000000,0.617,-0.119,-0.705,9.35,50.77,16.74,-30.10,33.52,20.46,-135.83,-7.17,-126.68,0.220,-0.837,-0.394,-0.309
4887401.000000,0.638,-0.102,-0.674,2.30,56.93,20.58,-30.98,33.79,20.25,-135.34,-7.35,-126.73,0.223,-0.836,-0.392,-0.312
4887411.000000,0.678,-0.074,-0.647,-1.64,63.44,27.91,-30.79,33.33,20.25,-134.80,-7.52,-126.85,0.226,-0.835,-0.390,-0.316
4887421.000000,0.747,-0.104,-0.635,5.31,66.73,33.61,-30.60,33.83,20.29,-134.20,-7.70,-127.05,0.228,-0.834,-0.386,-0.320
4887431.000000,0.705,-0.205,-0.665,10.77,72.80,22.31,-31.10,34.33,20.33,-133.56,-7.96,-127.25,0.232,-0.833,-0.383,-0.324
4887441.000000,0.747,-0.206,-0.646,-5.80,74.18,17.83,-31.14,34.52,20.08,-132.85,-8.21,-127.34,0.236,-0.832,-0.380,-0.328
4887451.000000,0.828,-0.140,-0.632,-7.69,62.29,15.36,-31.60,34.25,20.13,-132.13,-8.32,-127.49,0.238,-0.831,-0.377,-0.334
4887461.000000,0.816,-0.148,-0.672,0.50,57.92,7.87,-31.83,34.14,20.25,-131.52,-8.39,-127.65,0.241,-0.829,-0.374,-0.338
4887471.000000,0.816,-0.124,-0.655,9.15,49.18,7.74,-31.98,33.98,20.04,-130.94,-8.46,-127.72,0.243,-0.828,-0.372,-0.342
4887481.000000,0.802,-0.135,-0.647,13.98,43.99,11.75,-33.04,33.38,19.88,-130.43,-8.56,-127.71,0.245,-0.826,-0.371,-0.345
4887491.000000,0.806,-0.167,-0.626,14.44,42.73,13.50,-33.54,33.75,19.92,-129.98,-8.74,-127.68,0.248,-0.825,-0.370,-0.348
4887501.000000,0.782,-0.170,-0.595,13.23,40.09,15.31,-33.31,33.52,19.63,-129.55,-8.93,-127.65,0.251,-0.824,-0.368,-0.350
4887511.000000,0.738,-0.174,-0.589,12.27,38.12,14.93,-33.50,33.68,19.58,-129.14,-9.13,-127.64,0.253,-0.823,-0.366,-0.352
4887521.000000,0.745,-0.171,-0.570,10.22,39.00,14.79,-33.46,33.88,19.75,-128.75,-9.33,-127.64,0.256,-0.822,-0.365,-0.354
4887531.000000,0.770,-0.165,-0.556,9.74,41.87,16.81,-34.18,33.92,19.67,-128.37,-9.51,-127.65,0.258,-0.821,-0.363,-0.357
4887541.000000,0.787,-0.158,-0.564,10.16,46.81,15.16,-34.31,33.79,19.33,-127.95,-9.71,-127.67,0.261,-0.820,-0.361,-0.359
4887551.000000,0.803,-0.171,-0.587,11.92,50.60,13.26,-34.50,33.92,19.54,-127.49,-9.89,-127.69,0.264,-0.819,-0.360,-0.362
4887561.000000,0.819,-0.178,-0.591,12.14,49.03,13.42,-34.92,33.98,19.54,-126.99,-10.07,-127.68,0.267,-0.817,-0.358,-0.364
4887571.000000,0.824,-0.171,-0.589,8.25,44.06,12.79,-35.06,34.21,19.13,-126.49,-10.25,-127.66,0.269,-0.816,-0.356,-0.367
4887581.000000,0.815,-0.165,-0.577,3.51,38.60,10.47,-34.04,33.42,19.13,-126.04,-10.41,-127.66,0.272,-0.815,-0.354,-0.370
4887591.000000,0.818,-0.161,-0.568,-0.39,35.71,8.71,-34.46,32.96,19.08,-125.65,-10.52,-127.69,0.274,-0.814,-0.353,-0.372
4887601.000000,0.844,-0.169,-0.546,-2.72,35.38,9.15,-34.00,33.29,18.92,-125.30,-10.59,-127.74,0.275,-0.813,-0.351,-0.375
4887611.000000,0.845,-0.182,-0.507,-3.92,37.18,9.61,-34.31,33.46,18.75,-124.96,-10.65,-127.82,0.276,-0.812,-0.350,-0.377
4887621.000000,0.872,-0.196,-0.526,-2.62,40.40,9.95,-34.88,33.52,19.00,-124.60,-10.70,-127.90,0.277,-0.811,-0.348,-0.380
4887631.000000,0.851,-0.182,-0.521,-1.44,38.15,13.00,-34.46,34.21,18.67,-124.21,-10.76,-127.98,0.279,-0.810,-0.346,-0.382
4887641.000000,0.835,-0.184,-0.523,-3.00,35.73,14.17,-34.60,34.14,18.92,-123.83,-10.86,-128.07,0.280,-0.809,-0.344,-0.385
4887651.000000,0.839,-0.184,-0.512,-0.47,34.68,18.04,-34.64,34.38,19.13,-123.48,-10.96,-128.17,0.282,-0.808,-0.343,-0.387
4887661.000000,0.826,-0.170,-0.495,2.35,34.45,21.71,-34.50,34.25,18.96,-123.15,-11.10,-128.27,0.283,-0.808,-0.340,-0.389
4887671.000000,0.825,-0.177,-0.478,4.37,34.15,19.61,-34.73,34.38,18.83,-122.82,-11.29,-128.37,0.285,-0.807,-0.338,-0.391
4887681.000000,0.838,-0.191,-0.474,8.01,34.18,16.32,-33.73,33.33,18.54,-122.49,-11.48,-128.44,0.287,-0.806,-0.336,-0.393
4887691.000000,0.845,-0.169,-0.471,11.57,34.10,16.54,-33.39,33.60,18.75,-122.15,-11.66,-128.47,0.289,-0.805,-0.334,-0.395
4887701.000000,0.871,-0.177,-0.496,14.15,35.10,15.36,-33.58,33.29,18.83,-121.80,-11.86,-128.46,0.292,-0.804,-0.333,-0.396
4887711.000000,0.876,-0.155,-0.503,18.36,38.38,14.28,-33.35,33.92,18.88,-121.43,-12.06,-128.42,0.294,-0.803,-0.331,-0.398
4887721.000000,0.812,-0.210,-0.487,21.05,39.82,12.24,-33.73,33.56,18.58,-121.03,-12.27,-128.34,0.297,-0.802,-0.330,-0.400
4887731.000000,0.997,-0.162,-0.484,22.45,40.57,15.00,-33.68,34.60,17.92,-120.61,-12.47,-128.23,0.300,-0.800,-0.329,-0.402
4887741.000000,0.896,-0.183,-0.474,22.63,39.17,10.90,-33.96,34.75,18.17,-120.18,-12.71,-128.10,0.303,-0.799,-0.327,-0.404
4887751.000000,0.832,-0.212,-0.439,26.30,32.46,0.19,-34.50,34.67,18.38,-119.75,-12.92,-127.96,0.306,-0.797,-0.326,-0.405
4887761.000000,0.832,-0.264,-0.420,27.76,32.83,-0.95,-34.14,35.02,18.13,-119.36,-13.06,-127.74,0.309,-0.795,-0.326,-0.407
4887771.000000,0.832,-0.269,-0.412,24.32,33.38,-0.23,-34.08,35.06,17.54,-118.98,-13.19,-127.49,0.312,-0.793,-0.326,-0.409
4887781.000000,0.819,-0.235,-0.406,19.11,34.57,-1.18,-35.29,35.21,17.33,-118.59,-13.31,-127.26,0.315,-0.791,-0.326,-0.410
4887791.000000,0.814,-0.242,-0.408,16.16,40.02,-0.36,-35.56,35.29,17.42,-118.20,-13.39,-127.08,0.317,-0.790,-0.326,-0.412
4887801.000000,0.810,-0.271,-0.396,14.70,45.47,3.12,-35.48,35.21,17.29,-117.77,-13.47,-126.92,0.319,-0.788,-0.326,-0.414
4887811.000000,0.836,-0.281,-0.381,11.46,50.30,8.96,-35.79,35.39,17.17,-117.29,-13.56,-126.80,0.322,-0.786,-0.325,-0.417
4887821.000000,0.857,-0.270,-0.372,7.59,55.24,17.48,-35.98,35.39,16.63,-116.78,-13.70,-126.73,0.324,-0.784,-0.323,-0.420
4887832.000000,0.868,-0.251,-0.372,6.58,58.32,22.48,-35.98,35.39,16.63,-116.23,-13.89,-126.73,0.327,-0.782,-0.321,-0.423
4887842.000000,0.866,-0.242,-0.390,7.18,62.29,24.19,-36.10,35.71,16.71,-115.65,-14.13,-126.76,0.330,-0.780,-0.318,-0.426
4887852.000000,0.875,-0.238,-0.396,9.36,65.31,24.41,-36.43,35.93,16.79,-115.04,-14.38,-126.80,0.333,-0.778,-0.315,-0.429
4887862.000000,0.886,-0.244,-0.391,11.12,63.27,22.37,-36.63,35.56,16.46,-114.39,-14.64,-126.82,0.336,-0.776,-0.311,-0.433
4887872.000000,0.893,-0.256,-0.401,12.91,60.72,18.79,-36.48,35.71,16.38,-113.75,-14.89,-126.81,0.340,-0.774,-0.308,-0.436
4887882.000000,0.909,-0.262,-0.378,13.82,57.11,15.68,-36.48,35.71,16.38,-113.13,-15.11,-126.77,0.343,-0.772,-0.306,-0.439
4887891.000000,0.929,-0.277,-0.342,12.57,52.36,13.95,-37.35,36.85,15.96,-112.54,-15.31,-126.71,0.346,-0.770,-0.304,-0.442
4887901.000000,0.932,-0.290,-0.325,10.52,48.10,11.56,-37.81,36.63,16.29,-111.99,-15.49,-126.64,0.349,-0.768,-0.301,-0.445
4887911.000000,0.924,-0.295,-0.314,8.75,45.69,8.77,-37.54,36.67,15.71,-111.49,-15.64,-126.58,0.351,-0.766,-0.300,-0.448
4887921.000000,0.915,-0.297,-0.311,8.02,42.23,9.47,-38.04,36.77,15.71,-111.01,-15.76,-126.53,0.353,-0.764,-0.298,-0.450
4887931.000000,0.914,-0.307,-0.299,7.71,40.76,11.44,-38.04,36.77,15.71,-110.56,-15.88,-126.48,0.355,-0.762,-0.296,-0.453
4887941.000000,0.936,-0.292,-0.290,5.45,40.92,13.64,-37.71,35.43,15.38,-110.14,-16.02,-126.45,0.357,-0.761,-0.295,-0.455
4887951.000000,0.935,-0.287,-0.288,4.41,44.88,14.43,-37.77,35.39,15.46,-109.72,-16.17,-126.43,0.360,-0.759,-0.293,-0.457
4887961.000000,0.948,-0.283,-0.288,5.55,49.04,14.57,-37.63,35.21,15.21,-109.27,-16.32,-126.44,0.362,-0.758,-0.290,-0.459
4887971.000000,0.944,-0.275,-0.279,6.34,49.49,17.11,-37.93,35.02,15.04,-108.78,-16.48,-126.43,0.364,-0.756,-0.288,-0.462
4887981.000000,0.923,-0.265,-0.269,5.75,51.30,16.73,-37.93,35.02,15.04,-108.27,-16.66,-126.42,0.366,-0.754,-0.286,-0.465
4887991.000000,0.917,-0.277,-0.260,6.83,54.56,17.20,-38.18,36.35,15.17,-107.76,-16.83,-126.42,0.368,-0.752,-0.283,-0.467
4888001.000000,0.920,-0.312,-0.257,8.03,61.60,20.40,-38.23,36.54,14.79,-107.20,-17.01,-126.40,0.371,-0.750,-0.281,-0.470
4888011.000000,0.929,-0.356,-0.242,7.20,65.43,23.79,-38.42,36.67,14.29,-106.59,-17.22,-126.38,0.374,-0.748,-0.278,-0.473
4888021.000000,0.949,-0.357,-0.212,5.58,64.21,25.27,-38.27,36.63,14.04,-105.93,-17.47,-126.38,0.377,-0.745,-0.274,-0.477
4888031.000000,0.968,-0.355,-0.212,3.83,61.62,27.83,-38.27,36.63,14.04,-105.29,-17.74,-126.39,0.380,-0.743,-0.271,-0.480
4888041.000000,0.976,-0.347,-0.209,4.03,56.56,29.77,-38.42,36.85,13.71,-104.68,-18.02,-126.42,0.383,-0.741,-0.267,-0.483
4888051.000000,0.973,-0.324,-0.199,3.28,55.42,27.50,-38.46,36.77,13.58,-104.11,-18.32,-126.46,0.386,-0.739,-0.263,-0.485
4888061.000000,0.946,-0.308,-0.199,4.07,58.68,24.50,-38.77,37.17,13.75,-103.56,-18.60,-126.49,0.388,-0.737,-0.260,-0.488
4888071.000000,0.937,-0.309,-0.207,5.23,64.91,21.95,-38.54,37.17,13.58,-102.99,-18.85,-126.51,0.391,-0.735,-0.256,-0.491
4888081.000000,0.933,-0.313,-0.211,5.80,68.11,20.71,-38.54,37.17,13.58,-102.34,-19.07,-126.51,0.394,-0.733,-0.253,-0.494
4888091.000000,0.925,-0.320,-0.204,7.05,64.93,16.50,-38.81,37.63,13.50,-101.66,-19.29,-126.49,0.396,-0.730,-0.250,-0.498
4888101.000000,0.921,-0.340,-0.174,7.09,61.48,13.76,-38.64,37.85,12.96,-100.99,-19.47,-126.46,0.399,-0.727,-0.247,-0.501
4888111.000000,0.925,-0.355,-0.153,5.44,61.05,15.75,-38.68,37.89,12.79,-100.36,-19.62,-126.41,0.401,-0.725,-0.244,-0.504
4888121.000000,0.924,-0.353,-0.141,3.31,61.85,20.23,-39.14,37.67,12.42,-99.74,-19.78,-126.38,0.404,-0.722,-0.241,-0.507
4888131.000000,0.914,-0.352,-0.115,1.41,62.01,25.22,-39.14,37.67,12.42,-99.12,-19.98,-126.38,0.406,-0.720,-0.238,-0.511
4888141.000000,0.912,-0.379,-0.102,0.09,65.21,31.08,-39.14,38.73,12.29,-98.51,-20.23,-126.40,0.409,-0.717,-0.234,-0.514
4888151.000000,0.945,-0.382,-0.106,0.21,71.27,37.81,-38.96,38.64,12.25,-97.87,-20.54,-126.44,0.411,-0.715,-0.230,-0.516
4888161.000000,0.978,-0.400,-0.096,3.63,67.00,40.92,-39.27,38.88,12.13,-97.18,-20.91,-126.49,0.414,-0.713,-0.225,-0.520
4888171.000000,0.979,-0.390,-0.088,4.65,58.72,37.78,-38.68,38.68,11.92,-96.51,-21.33,-126.51,0.418,-0.710,-0.220,-0.522
4888181.000000,0.946,-0.374,-0.090,5.15,52.49,34.02,-38.68,38.68,11.92,-95.91,-21.71,-126.50,0.421,-0.708,-0.216,-0.524
4888192.000000,0.914,-0.351,-0.086,5.94,48.50,29.75,-38.04,38.42,11.92,-95.37,-22.06,-126.48,0.424,-0.706,-0.212,-0.526
4888202.000000,0.908,-0.337,-0.075,6.07,49.05,25.27,-38.04,38.42,11.92,-94.86,-22.37,-126.45,0.426,-0.704,-0.208,-0.528
4888212.000000,0.956,-0.363,-0.060,6.92,52.14,18.46,-38.04,38.42,11.92,-94.36,-22.63,-126.41,0.429,-0.702,-0.205,-0.530
4888222.000000,0.953,-0.389,-0.030,8.28,54.08,11.11,-38.04,38.42,11.92,-93.82,-22.82,-126.35,0.431,-0.700,-0.202,-0.532
4888232.000000,0.904,-0.404,-0.037,9.68,57.73,7.70,-38.18,38.73,10.96,-93.25,-22.95,-126.27,0.433,-0.697,-0.200,-0.535
4888242.000000,0.884,-0.415,-0.022,9.85,56.91,11.78,-38.08,38.46,11.04,-92.64,-23.03,-126.17,0.435,-0.694,-0.198,-0.538
4888252.000000,0.910,-0.420,0.007,5.87,51.71,19.24,-37.71,38.46,10.63,-92.02,-23.15,-126.07,0.437,-0.691,-0.195,-0.541
4888262.000000,0.941,-0.422,0.015,2.71,49.42,26.78,-38.00,38.81,10.79,-91.47,-23.34,-126.00,0.439,-0.689,-0.193,-0.543
4888272.000000,0.959,-0.383,0.014,5.33,49.46,26.58,-38.00,38.77,10.63,-90.96,-23.60,-125.97,0.442,-0.687,-0.189,-0.545
4888282.000000,0.928,-0.378,0.002,13.71,50.31,20.20,-37.77,38.88,10.71,-90.45,-23.87,-125.92,0.444,-0.685,-0.186,-0.547
4888292.000000,0.903,-0.400,0.008,22.59,49.45,14.71,-38.35,38.92,10.00,-89.89,-24.08,-125.78,0.447,-0.682,-0.183,-0.549
4888302.000000,0.883,-0.425,0.011,23.83,48.18,15.10,-38.23,39.31,9.71,-89.29,-24.23,-125.55,0.449,-0.679,-0.182,-0.551
4888312.000000,0.897,-0.422,0.016,18.94,47.47,16.95,-38.23,39.27,9.63,-88.70,-24.37,-125.28,0.452,-0.676,-0.180,-0.553
4888322.000000,0.907,-0.415,0.060,14.37,43.91,17.86,-38.27,39.04,9.79,-88.14,-24.54,-125.06,0.455,-0.673,-0.178,-0.555
4888332.000000,0.910,-0.407,0.065,10.38,40.00,15.34,-38.27,38.96,9.13,-87.62,-24.71,-124.89,0.457,-0.671,-0.176,-0.556
4888342.000000,0.909,-0.390,0.068,8.08,40.08,12.24,-38.18,38.88,9.46,-87.16,-24.86,-124.77,0.459,-0.669,-0.174,-0.558
4888352.000000,0.890,-0.400,0.078,7.66,43.04,12.32,-37.93,39.18,9.33,-86.72,-24.98,-124.66,0.461,-0.667,-0.172,-0.560
4888362.000000,0.877,-0.417,0.072,6.81,45.65,13.17,-38.23,39.00,9.38,-86.25,-25.09,-124.57,0.463,-0.664,-0.170,-0.562
4888372.000000,0.885,-0.425,0.081,4.42,45.63,15.06,-38.42,38.81,9.21,-85.75,-25.21,-124.48,0.465,-0.662,-0.168,-0.564
4888382.000000,0.911,-0.429,0.097,0.42,43.66,16.70,-38.54,39.18,8.58,-85.26,-25.36,-124.42,0.466,-0.660,-0.165,-0.566
4888392.000000,0.938,-0.415,0.104,-3.02,38.26,13.89,-38.50,40.06,7.88,-84.81,-25.52,-124.39,0.468,-0.658,-0.163,-0.568
4888402.000000,0.948,-0.406,0.108,-4.04,33.67,9.40,-38.54,39.96,7.79,-84.42,-25.67,-124.40,0.469,-0.656,-0.160,-0.569
4888412.000000,0.938,-0.391,0.123,-3.84,33.14,6.53,-39.10,40.14,7.75,-84.09,-25.77,-124.43,0.470,-0.655,-0.158,-0.571
4888422.000000,0.921,-0.407,0.120,-2.30,34.94,2.10,-39.14,39.73,7.71,-83.78,-25.83,-124.47,0.470,-0.653,-0.156,-0.573
4888432.000000,0.892,-0.417,0.111,-1.85,37.08,0.18,-38.68,40.14,7.58,-83.44,-25.86,-124.49,0.471,-0.652,-0.154,-0.574
4888442.000000,0.888,-0.399,0.107,-4.44,35.94,-0.21,-37.81,39.54,8.33,-83.07,-25.86,-124.51,0.471,-0.650,-0.153,-0.577
4888452.000000,0.901,-0.380,0.107,-7.17,34.93,1.13,-37.85,39.83,8.13,-82.73,-25.86,-124.55,0.471,-0.648,-0.151,-0.579
4888462.000000,0.905,-0.369,0.108,-7.26,35.90,3.99,-38.13,39.83,8.33,-82.41,-25.87,-124.63,0.471,-0.647,-0.149,-0.581
4888472.000000,0.886,-0.372,0.109,-4.38,37.25,4.64,-38.50,39.50,8.54,-82.09,-25.91,-124.70,0.471,-0.645,-0.147,-0.583
4888482.000000,0.872,-0.373,0.101,-1.24,38.47,6.33,-38.42,39.54,8.38,-81.74,-25.96,-124.75,0.472,-0.644,-0.145,-0.585
4888492.000000,0.887,-0.391,0.109,-0.58,41.34,9.59,-38.96,39.77,8.08,-81.36,-26.01,-124.76,0.473,-0.642,-0.143,-0.587
4888502.000000,0.918,-0.417,0.127,-0.57,40.81,9.37,-39.00,40.14,7.75,-80.96,-26.10,-124.75,0.473,-0.640,-0.141,-0.589
4888512.000000,0.934,-0.413,0.140,-0.24,35.24,5.89,-38.88,39.77,7.88,-80.54,-26.19,-124.74,0.474,-0.638,-0.139,-0.590
4888522.000000,0.924,-0.398,0.155,1.41,28.86,0.86,-39.14,40.00,7.96,-80.18,-26.25,-124.73,0.475,-0.636,-0.137,-0.592
4888532.000000,0.911,-0.416,0.153,3.79,27.61,-3.50,-39.27,40.23,7.75,-79.88,-26.26,-124.72,0.476,-0.635,-0.136,-0.594
4888542.000000,0.903,-0.411,0.137,3.23,28.69,-1.19,-38.92,40.06,7.50,-79.59,-26.22,-124.68,0.476,-0.633,-0.135,-0.595
4888552.000000,0.900,-0.412,0.153,-0.04,29.45,2.64,-39.60,40.14,7.63,-79.29,-26.19,-124.65,0.476,-0.631,-0.134,-0.597
4888562.000000,0.908,-0.433,0.176,-2.69,30.04,5.39,-39.33,40.06,7.46,-78.99,-26.21,-124.64,0.477,-0.630,-0.133,-0.599
4888572.000000,0.913,-0.436,0.199,-4.34,29.76,4.88,-39.10,39.88,7.17,-78.70,-26.26,-124.66,0.477,-0.628,-0.131,-0.600
4888582.000000,0.912,-0.417,0.206,-5.06,30.25,3.50,-39.23,40.14,7.00,-78.42,-26.31,-124.69,0.478,-0.627,-0.130,-0.602
4888592.000000,0.893,-0.411,0.197,-3.74,33.06,3.18,-38.92,40.14,7.25,-78.14,-26.35,-124.74,0.478,-0.626,-0.128,-0.603
4888602.000000,0.878,-0.417,0.192,-3.29,34.86,4.28,-38.58,40.64,7.04,-77.82,-26.39,-124.77,0.478,-0.624,-0.126,-0.605
4888612.000000,0.868,-0.417,0.187,-5.44,36.65,7.52,-38.64,40.56,7.08,-77.49,-26.43,-124.80,0.479,-0.623,-0.124,-0.607
4888622.000000,0.893,-0.423,0.197,-8.37,39.73,11.69,-38.81,40.42,7.17,-77.14,-26.50,-124.84,0.479,-0.621,-0.122,-0.608
4888632.000000,0.890,-0.421,0.204,-10.21,40.88,15.33,-38.77,40.42,7.25,-76.77,-26.63,-124.90,0.480,-0.619,-0.119,-0.610
4888642.000000,0.882,-0.412,0.229,-7.46,40.59,10.80,-40.14,39.96,7.29,-76.40,-26.79,-124.97,0.480,-0.618,-0.116,-0.612
4888652.000000,0.876,-0.414,0.234,-3.18,43.71,5.60,-40.38,39.83,7.29,-76.02,-26.92,-125.02,0.481,-0.616,-0.114,-0.614
4888662.000000,0.834,-0.442,0.237,0.92,46.36,3.98,-40.25,39.92,7.04,-75.60,-26.98,-125.05,0.481,-0.614,-0.111,-0.616
