TimeStamp,AccX,AccY,AccZ,GyrX,GyrY,GyrZ,MagX,MagY,MagZ,Roll,Pitch,Yaw,Qw,Qx,Qy,Qz
4010072.000000,-0.006,-0.032,1.009,-0.09,0.03,0.06,-34.83,27.10,-29.58,0.25,-1.93,-130.20,0.421,-0.005,0.016,-0.907
4010082.000000,-0.003,-0.034,1.002,0.05,0.14,-0.05,-34.68,27.17,-29.38,0.25,-1.93,-130.20,0.421,-0.005,0.016,-0.907
4010092.000000,-0.003,-0.032,1.006,0.11,-0.01,0.07,-34.88,27.10,-29.54,0.25,-1.93,-130.20,0.421,-0.005,0.016,-0.907
4010102.000000,-0.005,-0.034,1.010,-0.05,0.05,-0.03,-34.92,26.98,-29.58,0.25,-1.93,-130.20,0.421,-0.005,0.016,-0.907
4010112.000000,-0.006,-0.035,1.011,0.11,0.05,-0.01,-35.06,26.93,-29.46,0.25,-1.93,-130.20,0.421,-0.005,0.016,-0.907
4010122.000000,-0.005,-0.031,1.006,0.09,-0.03,0.03,-35.06,26.93,-29.46,0.25,-1.93,-130.20,0.421,-0.005,0.016,-0.907
4010132.000000,-0.003,-0.036,1.007,0.01,0.12,0.03,-34.92,27.38,-29.88,0.25,-1.93,-130.20,0.421,-0.005,0.016,-0.907
4010142.000000,-0.006,-0.036,1.011,-0.03,-0.05,-0.07,-34.54,26.83,-29.54,0.25,-1.93,-130.20,0.421,-0.005,0.016,-0.907
4010152.000000,-0.005,-0.031,1.009,-0.05,0.09,-0.05,-34.64,27.10,-29.88,0.25,-1.93,-130.20,0.421,-0.005,0.016,-0.907
4010162.000000,-0.003,-0.035,1.003,0.01,0.05,0.10,-34.64,27.10,-29.88,0.25,-1.93,-130.20,0.421,-0.005,0.016,-0.907
4010172.000000,-0.005,-0.034,1.010,0.05,0.03,-0.07,-34.64,27.10,-29.88,0.25,-1.93,-130.20,0.421,-0.005,0.016,-0.907
4010182.000000,-0.005,-0.034,1.010,-0.01,0.03,0.12,-35.14,27.29,-29.67,0.25,-1.93,-130.20,0.421,-0.005,0.016,-0.907
4010192.000000,-0.003,-0.034,1.006,0.01,-0.07,0.01,-35.14,27.29,-29.67,0.25,-1.93,-130.20,0.421,-0.005,0.016,-0.907
4010202.000000,-0.006,-0.031,1.013,-0.03,-0.01,-0.07,-35.14,27.29,-29.67,0.25,-1.93,-130.20,0.421,-0.005,0.016,-0.907
4010212.000000,-0.005,-0.032,1.007,-0.01,0.07,0.03,-34.77,27.89,-29.63,0.25,-1.93,-130.20,0.421,-0.005,0.016,-0.907
4010222.000000,-0.006,-0.034,1.010,0.07,-0.01,0.09,-34.50,27.25,-29.88,0.25,-1.93,-130.20,0.421,-0.005,0.016,-0.907
4010232.000000,-0.005,-0.034,1.007,-0.01,-0.03,0.01,-35.00,27.33,-29.71,0.25,-1.93,-130.20,0.421,-0.005,0.016,-0.907
4010242.000000,-0.006,-0.032,1.009,-0.01,0.03,0.01,-34.77,27.38,-29.83,0.25,-1.93,-130.20,0.421,-0.005,0.016,-0.907
4010252.000000,-0.003,-0.036,1.011,-0.05,0.16,0.06,-35.25,27.25,-29.38,0.25,-1.93,-130.20,0.421,-0.005,0.016,-0.907
4010262.000000,-0.006,-0.035,1.014,0.03,-0.01,0.03,-34.96,27.21,-29.79,0.25,-1.93,-130.20,0.421,-0.005,0.016,-0.907
4010272.000000,-0.006,-0.035,1.010,0.07,0.09,0.01,-34.88,27.06,-29.21,0.25,-1.93,-130.20,0.421,-0.005,0.016,-0.907
4010282.000000,-0.001,-0.034,1.007,0.03,0.14,-0.01,-34.88,26.93,-29.54,0.25,-1.93,-130.20,0.421,-0.005,0.016,-0.907
4010292.000000,-0.005,-0.035,1.009,-0.07,0.01,0.03,-35.00,26.64,-29.46,0.25,-1.93,-130.20,0.421,-0.005,0.016,-0.907
4010302.000000,-0.007,-0.032,1.009,0.03,0.09,0.01,-35.14,26.29,-29.79,0.25,-1.93,-130.20,0.421,-0.005,0.016,-0.907
4010312.000000,-0.006,-0.034,1.011,-0.01,-0.09,0.01,-34.83,26.64,-29.67,0.25,-1.93,-130.20,0.421,-0.005,0.016,-0.907
4010322.000000,-0.006,-0.034,1.010,0.05,0.12,-0.01,-34.64,26.83,-29.79,0.25,-1.93,-130.20,0.421,-0.005,0.016,-0.907
4010332.000000,-0.003,-0.032,1.009,0.03,0.01,-0.09,-34.46,27.75,-29.63,0.25,-1.93,-130.20,0.421,-0.005,0.016,-0.907
4010342.000000,-0.003,-0.034,1.009,0.05,-0.05,-0.01,-34.14,27.71,-29.58,0.25,-1.93,-130.20,0.421,-0.005,0.016,-0.907
4010352.000000,-0.006,-0.032,1.005,0.05,-0.09,-0.01,-34.50,27.79,-29.83,0.25,-1.93,-130.20,0.421,-0.005,0.016,-0.907
4010362.000000,-0.002,-0.034,1.005,0.03,0.03,-0.05,-34.42,27.48,-29.38,0.25,-1.93,-130.20,0.421,-0.005,0.016,-0.907
4010372.000000,-0.003,-0.034,1.003,0.03,0.01,0.01,-34.50,27.79,-29.63,0.25,-1.93,-130.20,0.421,-0.005,0.016,-0.907
4010382.000000,-0.003,-0.035,1.010,-0.01,0.05,-0.09,-34.23,27.48,-29.54,0.25,-1.93,-130.20,0.421,-0.005,0.016,-0.907
4010392.000000,-0.007,-0.034,1.010,0.05,0.16,0.01,-34.46,27.52,-29.25,0.25,-1.93,-130.20,0.421,-0.005,0.016,-0.907
4010402.000000,-0.006,-0.034,1.009,-0.01,-0.05,0.05,-34.04,27.43,-29.25,0.25,-1.93,-130.20,0.421,-0.005,0.016,-0.907
4010412.000000,-0.005,-0.032,1.007,-0.03,0.01,-0.03,-34.18,27.38,-29.17,0.25,-1.93,-130.20,0.421,-0.005,0.016,-0.907
4010422.000000,-0.005,-0.032,1.009,-0.03,-0.01,-0.03,-34.23,27.43,-29.17,0.25,-1.93,-130.20,0.421,-0.005,0.016,-0.907
4010432.000000,-0.003,-0.032,1.010,0.01,0.16,0.01,-34.83,27.43,-29.54,0.25,-1.93,-130.20,0.421,-0.005,0.016,-0.907
4010442.000000,-0.002,-0.035,1.007,0.03,-0.05,0.01,-35.00,27.83,-29.83,0.25,-1.93,-130.20,0.421,-0.005,0.016,-0.907
4010452.000000,-0.002,-0.031,1.006,-0.03,0.09,0.01,-35.00,27.75,-29.75,0.25,-1.93,-130.20,0.421,-0.005,0.016,-0.907
4010462.000000,-0.005,-0.032,1.007,0.07,-0.07,0.03,-34.77,27.75,-29.71,0.25,-1.93,-130.20,0.421,-0.005,0.016,-0.907
4010472.000000,-0.001,-0.036,1.010,0.05,0.01,0.01,-34.88,27.67,-29.63,0.25,-1.93,-130.20,0.421,-0.005,0.016,-0.907
4010482.000000,-0.003,-0.036,1.009,0.07,0.01,0.09,-34.83,27.38,-29.50,0.25,-1.93,-130.20,0.421,-0.005,0.016,-0.907
4010492.000000,-0.005,-0.036,1.007,-0.01,0.07,0.01,-35.10,27.38,-29.63,0.25,-1.93,-130.20,0.421,-0.005,0.016,-0.907
4010502.000000,-0.005,-0.034,1.006,0.09,-0.01,0.07,-35.25,26.79,-30.00,0.25,-1.93,-130.20,0.421,-0.005,0.016,-0.907
4010512.000000,-0.005,-0.039,1.007,-0.01,0.18,-0.11,-35.25,27.56,-29.38,0.25,-1.93,-130.20,0.421,-0.005,0.016,-0.907
4010522.000000,-0.003,-0.034,1.009,0.07,0.09,-0.09,-35.42,27.48,-29.67,0.25,-1.93,-130.20,0.421,-0.005,0.016,-0.907
4010532.000000,-0.003,-0.032,1.009,-0.03,0.09,0.06,-35.10,27.71,-29.58,0.25,-1.93,-130.20,0.421,-0.005,0.016,-0.907
4010542.000000,-0.005,-0.032,1.007,-0.05,-0.01,-0.03,-35.18,27.89,-29.79,0.25,-1.93,-130.20,0.421,-0.005,0.016,-0.907
4010552.000000,-0.007,-0.032,1.005,0.01,0.03,-0.01,-35.42,28.06,-29.38,0.25,-1.93,-130.20,0.421,-0.005,0.016,-0.907
4010562.000000,-0.005,-0.031,1.010,-0.03,-0.05,0.10,-35.25,27.71,-29.42,0.25,-1.93,-130.20,0.421,-0.005,0.016,-0.907
4010572.000000,-0.006,-0.035,1.010,-0.07,-0.05,-0.03,-35.42,27.56,-29.67,0.25,-1.93,-130.20,0.421,-0.005,0.016,-0.907
4010582.000000,-0.007,-0.035,1.013,0.03,0.07,-0.03,-34.18,27.71,-29.42,0.25,-1.93,-130.20,0.421,-0.005,0.016,-0.907
4010592.000000,-0.003,-0.035,1.007,0.01,-0.07,0.01,-34.46,27.43,-29.88,0.25,-1.93,-130.20,0.421,-0.005,0.016,-0.907
4010602.000000,-0.009,-0.038,1.013,-0.01,0.07,0.03,-33.96,27.48,-29.54,0.25,-1.93,-130.20,0.421,-0.005,0.016,-0.907
4010612.000000,-0.006,-0.034,1.009,0.05,0.09,-0.07,-34.31,27.79,-29.71,0.25,-1.93,-130.20,0.421,-0.005,0.016,-0.907
4010622.000000,-0.007,-0.035,1.009,-0.01,0.14,0.08,-34.46,27.79,-29.75,0.25,-1.93,-130.20,0.421,-0.005,0.016,-0.907
4010632.000000,-0.003,-0.034,1.010,0.03,-0.03,0.01,-34.73,28.48,-29.71,0.25,-1.93,-130.20,0.421,-0.005,0.016,-0.907
4010642.000000,-0.002,-0.031,1.003,-0.05,0.05,-0.07,-34.92,28.29,-29.50,0.25,-1.93,-130.20,0.421,-0.005,0.016,-0.907
4010652.000000,-0.003,-0.036,1.009,-0.01,-0.15,0.01,-34.92,28.25,-29.71,0.25,-1.93,-130.20,0.421,-0.005,0.016,-0.907
4010662.000000,-0.005,-0.034,1.009,0.01,0.09,-0.07,-34.73,28.67,-29.54,0.25,-1.93,-130.20,0.421,-0.005,0.016,-0.907
4010672.000000,-0.002,-0.034,1.005,-0.05,-0.05,-0.05,-34.92,28.25,-29.58,0.25,-1.93,-130.20,0.421,-0.005,0.016,-0.907
4010682.000000,-0.003,-0.035,1.007,-0.07,0.12,0.01,-34.23,27.60,-29.58,0.25,-1.93,-130.20,0.421,-0.005,0.016,-0.907
4010692.000000,-0.006,-0.034,1.010,-0.05,0.01,0.12,-34.31,27.43,-29.63,0.25,-1.93,-130.20,0.421,-0.005,0.016,-0.907
4010702.000000,-0.003,-0.034,1.007,-0.01,0.16,-0.09,-34.23,27.43,-29.42,0.25,-1.93,-130.20,0.421,-0.005,0.016,-0.907
4010712.000000,-0.003,-0.035,1.011,0.03,0.14,0.05,-34.18,27.33,-29.42,0.25,-1.93,-130.20,0.421,-0.005,0.016,-0.907
4010722.000000,-0.003,-0.031,1.006,-0.05,-0.01,-0.07,-33.92,27.29,-29.63,0.25,-1.93,-130.20,0.421,-0.005,0.016,-0.907
4010732.000000,-0.003,-0.035,1.010,-0.01,0.07,0.05,-34.68,27.43,-29.75,0.25,-1.93,-130.20,0.421,-0.005,0.016,-0.907
4010742.000000,-0.003,-0.035,1.007,-0.05,0.12,0.03,-34.68,27.52,-29.71,0.25,-1.93,-130.20,0.421,-0.005,0.016,-0.907
4010752.000000,-0.006,-0.034,1.009,0.05,0.14,-0.05,-34.60,27.75,-30.04,0.25,-1.93,-130.20,0.421,-0.005,0.016,-0.907
4010762.000000,-0.005,-0.038,1.007,-0.01,0.01,-0.05,-34.83,27.71,-29.71,0.25,-1.93,-130.20,0.421,-0.005,0.016,-0.907
4010772.000000,-0.006,-0.032,1.011,0.03,0.07,-0.03,-34.88,27.79,-29.71,0.25,-1.93,-130.20,0.421,-0.005,0.016,-0.907
4010782.000000,-0.005,-0.031,1.006,0.03,-0.03,-0.07,-34.42,27.06,-29.79,0.25,-1.93,-130.20,0.421,-0.005,0.016,-0.907
4010792.000000,-0.009,-0.035,1.006,-0.01,0.09,0.05,-34.14,27.38,-29.21,0.25,-1.93,-130.20,0.421,-0.005,0.016,-0.907
4010802.000000,-0.002,-0.032,1.005,0.01,0.01,-0.03,-34.64,27.33,-29.33,0.25,-1.93,-130.20,0.421,-0.005,0.016,-0.907
4010812.000000,-0.005,-0.035,1.006,0.01,0.07,0.01,-34.46,27.25,-29.46,0.25,-1.93,-130.20,0.421,-0.005,0.016,-0.907
4010822.000000,-0.003,-0.035,1.007,0.05,0.28,-0.03,-34.50,27.60,-29.17,0.25,-1.93,-130.20,0.421,-0.005,0.016,-0.907
4010832.000000,-0.003,-0.032,1.005,0.03,-0.05,-0.05,-34.08,27.38,-29.71,0.25,-1.93,-130.20,0.421,-0.005,0.016,-0.907
4010842.000000,-0.005,-0.034,1.007,-0.03,0.05,0.03,-34.18,27.06,-29.71,0.25,-1.93,-130.20,0.421,-0.005,0.016,-0.907
4010852.000000,-0.003,-0.035,1.007,0.01,0.03,0.03,-34.18,27.52,-29.96,0.25,-1.93,-130.20,0.421,-0.005,0.016,-0.907
4010862.000000,-0.005,-0.032,1.007,0.11,0.05,-0.05,-34.08,27.25,-29.75,0.25,-1.93,-130.20,0.421,-0.005,0.016,-0.907
4010872.000000,-0.006,-0.031,1.009,0.01,0.05,0.01,-34.27,27.10,-29.63,0.25,-1.93,-130.20,0.421,-0.005,0.016,-0.907
4010882.000000,-0.006,-0.035,1.010,0.05,0.01,0.07,-34.18,27.33,-29.63,0.25,-1.93,-130.20,0.421,-0.005,0.016,-0.907
4010892.000000,-0.005,-0.032,1.014,0.13,0.01,-0.01,-34.27,27.17,-29.38,0.25,-1.93,-130.20,0.421,-0.005,0.016,-0.907
4010902.000000,-0.005,-0.034,1.006,0.03,0.03,-0.03,-34.27,27.38,-29.63,0.25,-1.93,-130.20,0.421,-0.005,0.016,-0.907
4010912.000000,-0.006,-0.032,1.005,-0.03,0.09,-0.01,-34.31,27.17,-29.83,0.25,-1.93,-130.20,0.421,-0.005,0.016,-0.907
4010923.000000,-0.005,-0.034,1.007,0.01,0.01,0.01,-34.14,27.10,-29.58,0.25,-1.93,-130.20,0.421,-0.005,0.016,-0.907
4010933.000000,-0.005,-0.035,1.006,0.03,0.01,-0.09,-34.27,27.21,-29.92,0.25,-1.93,-130.20,0.421,-0.005,0.016,-0.907
4010943.000000,-0.003,-0.034,1.009,0.09,0.01,0.03,-34.18,26.93,-29.83,0.25,-1.93,-130.20,0.421,-0.005,0.016,-0.907
4010953.000000,-0.002,-0.031,1.006,0.05,0.14,-0.07,-34.08,27.06,-29.58,0.25,-1.93,-130.20,0.421,-0.005,0.016,-0.907
4010963.000000,-0.006,-0.036,1.007,-0.03,0.01,-0.03,-33.96,27.33,-29.63,0.25,-1.93,-130.20,0.421,-0.005,0.016,-0.907
4010973.000000,-0.006,-0.034,1.007,0.13,-0.03,0.07,-34.27,27.02,-29.54,0.25,-1.93,-130.20,0.421,-0.005,0.016,-0.907
4010983.000000,-0.005,-0.031,1.007,0.01,0.01,-0.07,-33.77,27.56,-29.42,0.25,-1.93,-130.20,0.421,-0.005,0.016,-0.907
4010993.000000,-0.005,-0.035,1.010,-0.01,-0.01,0.08,-33.85,27.67,-29.33,0.25,-1.93,-130.20,0.421,-0.005,0.016,-0.907
4011003.000000,-0.006,-0.034,1.011,0.01,-0.05,0.01,-33.96,27.52,-29.83,0.25,-1.93,-130.20,0.421,-0.005,0.016,-0.907
4011013.000000,-0.007,-0.031,1.007,-0.01,-0.11,0.05,-33.96,27.38,-29.75,0.25,-1.93,-130.20,0.421,-0.005,0.016,-0.907
4011023.000000,-0.005,-0.035,1.009,0.05,0.05,-0.03,-34.46,27.43,-30.21,0.25,-1.93,-130.20,0.421,-0.005,0.016,-0.907
4011033.000000,-0.002,-0.034,1.006,0.03,-0.03,0.01,-35.42,27.43,-29.67,0.25,-1.92,-130.20,0.421,-0.005,0.016,-0.907
4011043.000000,-0.005,-0.036,1.007,-0.07,0.05,-0.03,-35.06,27.21,-29.63,0.25,-1.92,-130.20,0.421,-0.005,0.016,-0.907
4011053.000000,-0.005,-0.035,1.007,0.03,0.05,-0.05,-35.00,27.21,-29.75,0.25,-1.92,-130.20,0.421,-0.005,0.016,-0.907
4011063.000000,-0.002,-0.036,1.010,-0.05,-0.05,-0.03,-35.10,27.38,-29.75,0.25,-1.93,-130.20,0.421,-0.005,0.016,-0.907
4011073.000000,-0.005,-0.034,1.005,-0.03,0.01,-0.03,-34.83,27.25,-29.67,0.25,-1.93,-130.20,0.421,-0.005,0.016,-0.907
4011083.000000,-0.006,-0.035,1.011,-0.03,-0.01,-0.01,-35.14,27.21,-29.42,0.25,-1.93,-130.20,0.421,-0.005,0.016,-0.907
4011093.000000,-0.006,-0.036,1.011,-0.07,0.03,0.08,-34.77,27.17,-29.67,0.25,-1.93,-130.21,0.421,-0.005,0.016,-0.907
4011103.000000,-0.005,-0.031,1.007,-0.05,-0.09,-0.03,-34.77,27.38,-29.67,0.25,-1.93,-130.20,0.421,-0.005,0.016,-0.907
4011113.000000,-0.001,-0.030,1.007,-0.03,0.09,0.03,-35.14,27.02,-29.58,0.25,-1.93,-130.20,0.421,-0.005,0.016,-0.907
4011123.000000,-0.003,-0.035,1.010,0.03,0.12,-0.07,-35.10,27.21,-29.71,0.25,-1.93,-130.20,0.421,-0.005,0.016,-0.907
4011133.000000,-0.005,-0.032,1.010,-0.03,-0.01,0.12,-34.83,27.06,-29.58,0.25,-1.93,-130.20,0.421,-0.005,0.016,-0.907
4011143.000000,-0.005,-0.034,1.010,0.05,0.03,-0.05,-35.10,26.64,-29.67,0.25,-1.93,-130.20,0.421,-0.005,0.016,-0.907
4011153.000000,-0.005,-0.035,1.007,0.05,0.16,-0.03,-34.54,26.29,-29.38,0.25,-1.93,-130.20,0.421,-0.005,0.016,-0.907
4011163.000000,-0.003,-0.035,1.011,-0.03,0.20,0.03,-34.54,27.02,-29.42,0.25,-1.93,-130.20,0.421,-0.005,0.016,-0.907
4011173.000000,-0.003,-0.032,1.007,-0.01,-0.07,-0.05,-34.54,26.75,-29.38,0.25,-1.93,-130.20,0.421,-0.005,0.016,-0.907
4011183.000000,-0.002,-0.032,1.006,0.01,-0.01,0.01,-34.77,27.25,-29.54,0.25,-1.93,-130.20,0.421,-0.005,0.016,-0.907
4011193.000000,-0.003,-0.032,1.009,0.05,0.01,-0.05,-34.88,27.43,-29.25,0.25,-1.93,-130.20,0.421,-0.005,0.016,-0.907
4011203.000000,-0.006,-0.032,1.011,0.07,-0.01,-0.03,-34.83,27.43,-29.42,0.25,-1.93,-130.20,0.421,-0.005,0.016,-0.907
4011213.000000,-0.003,-0.035,1.007,-0.03,0.01,-0.05,-34.77,27.33,-29.50,0.25,-1.93,-130.20,0.421,-0.005,0.016,-0.907
4011223.000000,-0.005,-0.032,1.011,0.05,0.01,-0.01,-34.92,27.38,-29.63,0.25,-1.93,-130.21,0.421,-0.005,0.016,-0.907
4011233.000000,-0.005,-0.034,1.009,-0.11,-0.07,-0.03,-34.64,27.21,-29.75,0.25,-1.93,-130.21,0.421,-0.005,0.016,-0.907
4011243.000000,-0.002,-0.034,1.009,0.01,0.01,0.01,-34.60,26.98,-29.63,0.25,-1.93,-130.21,0.421,-0.005,0.016,-0.907
4011253.000000,-0.006,-0.035,1.006,-0.01,-0.03,-0.01,-34.54,27.29,-29.54,0.25,-1.93,-130.21,0.421,-0.005,0.016,-0.907
4011263.000000,-0.005,-0.036,1.010,-0.09,-0.07,0.01,-34.23,27.02,-29.75,0.25,-1.93,-130.21,0.421,-0.005,0.016,-0.907
4011273.000000,-0.003,-0.030,1.009,0.03,0.16,-0.01,-34.54,27.38,-29.58,0.24,-1.93,-130.21,0.421,-0.005,0.016,-0.907
4011283.000000,-0.005,-0.035,1.007,0.01,0.03,0.05,-34.50,27.75,-29.38,0.25,-1.93,-130.21,0.421,-0.005,0.016,-0.907
4011293.000000,-0.005,-0.035,1.011,-0.01,-0.05,0.10,-34.46,27.83,-29.92,0.25,-1.93,-130.21,0.421,-0.005,0.016,-0.907
4011303.000000,-0.003,-0.032,1.006,-0.05,0.07,0.01,-34.18,27.83,-29.83,0.24,-1.93,-130.20,0.421,-0.005,0.016,-0.907
4011313.000000,-0.007,-0.034,1.010,0.05,-0.09,-0.05,-34.23,27.79,-30.13,0.24,-1.93,-130.20,0.421,-0.005,0.016,-0.907
4011323.000000,-0.005,-0.034,1.010,-0.15,0.03,-0.03,-34.50,27.52,-29.75,0.24,-1.93,-130.21,0.421,-0.005,0.016,-0.907
4011333.000000,-0.006,-0.034,1.009,-0.05,0.03,0.01,-34.83,27.25,-29.75,0.24,-1.93,-130.21,0.421,-0.005,0.016,-0.907
4011343.000000,-0.005,-0.034,1.005,0.09,0.14,0.03,-35.29,27.33,-29.88,0.24,-1.93,-130.21,0.421,-0.005,0.016,-0.907
4011353.000000,-0.006,-0.032,1.007,0.07,0.01,0.05,-35.25,27.10,-29.96,0.25,-1.93,-130.20,0.421,-0.005,0.016,-0.907
4011363.000000,-0.007,-0.031,1.011,-0.09,0.09,0.06,-34.88,27.10,-29.92,0.24,-1.93,-130.20,0.421,-0.005,0.016,-0.907
4011373.000000,-0.003,-0.036,1.011,-0.07,0.09,0.01,-35.06,26.93,-30.08,0.25,-1.93,-130.20,0.421,-0.005,0.016,-0.907
4011383.000000,-0.005,-0.038,1.006,0.01,0.01,-0.01,-34.83,27.25,-29.63,0.25,-1.93,-130.20,0.421,-0.005,0.016,-0.907
4011393.000000,-0.003,-0.034,1.011,0.07,-0.03,0.03,-35.52,27.25,-29.67,0.25,-1.93,-130.20,0.421,-0.005,0.016,-0.907
4011403.000000,-0.003,-0.035,1.007,0.05,0.16,0.01,-35.06,26.98,-29.92,0.25,-1.93,-130.20,0.421,-0.005,0.016,-0.907
4011413.000000,-0.005,-0.034,1.007,0.09,0.05,-0.03,-35.10,27.06,-29.79,0.25,-1.93,-130.20,0.421,-0.005,0.016,-0.907
4011423.000000,-0.003,-0.034,1.005,0.07,0.01,-0.03,-34.73,27.25,-29.54,0.25,-1.93,-130.20,0.421,-0.005,0.016,-0.907
4011433.000000,-0.002,-0.034,1.005,0.05,0.07,-0.01,-34.23,27.29,-29.54,0.25,-1.93,-130.20,0.421,-0.005,0.016,-0.907
4011443.000000,-0.006,-0.034,1.005,-0.07,0.05,-0.01,-34.68,27.60,-29.58,0.25,-1.93,-130.21,0.421,-0.005,0.016,-0.907
4011453.000000,-0.003,-0.031,1.007,0.01,0.16,0.03,-34.54,27.38,-29.75,0.25,-1.93,-130.21,0.421,-0.005,0.016,-0.907
4011463.000000,-0.006,-0.032,1.007,-0.05,-0.03,0.06,-34.46,27.02,-29.33,0.25,-1.93,-130.21,0.421,-0.005,0.016,-0.907
4011473.000000,-0.002,-0.031,1.006,0.01,-0.01,0.01,-34.54,27.06,-29.29,0.25,-1.93,-130.20,0.421,-0.005,0.016,-0.907
4011483.000000,-0.005,-0.035,1.006,0.01,0.16,-0.03,-33.73,27.60,-29.25,0.25,-1.93,-130.20,0.421,-0.005,0.016,-0.907
4011493.000000,-0.002,-0.032,1.010,0.07,-0.01,0.05,-33.35,27.56,-29.38,0.25,-1.93,-130.20,0.421,-0.005,0.016,-0.907
4011503.000000,-0.005,-0.031,1.005,-0.01,0.14,0.08,-33.46,27.38,-29.38,0.25,-1.93,-130.20,0.421,-0.005,0.016,-0.907
4011513.000000,-0.002,-0.034,1.007,-0.01,0.05,0.03,-33.73,27.83,-29.67,0.25,-1.93,-130.20,0.421,-0.005,0.016,-0.907
4011523.000000,-0.005,-0.034,1.006,0.01,-0.03,-0.01,-33.31,27.89,-29.38,0.25,-1.93,-130.20,0.421,-0.005,0.016,-0.907
4011533.000000,-0.005,-0.034,1.009,0.13,0.01,0.01,-34.92,27.21,-29.71,0.25,-1.93,-130.20,0.421,-0.005,0.016,-0.907
4011543.000000,-0.007,-0.035,1.011,0.01,0.05,0.03,-34.92,26.75,-29.38,0.25,-1.93,-130.20,0.421,-0.005,0.016,-0.907
4011553.000000,-0.005,-0.036,1.007,0.01,-0.07,0.03,-35.10,26.98,-29.50,0.25,-1.93,-130.20,0.421,-0.005,0.016,-0.907
4011563.000000,-0.003,-0.034,1.011,0.03,0.03,0.05,-34.73,27.21,-29.67,0.25,-1.93,-130.20,0.421,-0.005,0.016,-0.907
4011573.000000,-0.003,-0.035,1.011,-0.01,0.09,0.01,-35.06,27.17,-29.71,0.25,-1.93,-130.20,0.421,-0.005,0.016,-0.907
4011583.000000,-0.007,-0.034,1.006,0.03,0.07,0.05,-34.23,27.17,-29.33,0.25,-1.93,-130.20,0.421,-0.005,0.016,-0.907
4011593.000000,-0.007,-0.034,1.006,0.05,0.03,-0.03,-34.31,27.38,-29.33,0.25,-1.93,-130.20,0.421,-0.005,0.016,-0.907
4011603.000000,-0.007,-0.031,1.009,-0.01,-0.03,-0.05,-34.88,26.98,-29.33,0.25,-1.93,-130.20,0.421,-0.005,0.016,-0.907
4011613.000000,-0.005,-0.036,1.006,0.05,0.07,-0.01,-34.50,27.06,-29.67,0.25,-1.93,-130.20,0.421,-0.005,0.016,-0.907
4011623.000000,-0.005,-0.036,1.005,0.01,0.05,-0.01,-34.77,27.10,-29.58,0.25,-1.93,-130.20,0.421,-0.005,0.016,-0.907
4011633.000000,-0.005,-0.032,1.011,-0.01,-0.01,0.03,-34.50,27.38,-29.75,0.25,-1.93,-130.20,0.421,-0.005,0.016,-0.907
4011643.000000,-0.003,-0.034,1.015,0.01,0.01,0.03,-34.64,27.48,-29.58,0.25,-1.93,-130.20,0.421,-0.005,0.016,-0.907
4011653.000000,-0.005,-0.034,1.009,0.07,-0.03,0.01,-34.64,27.43,-30.00,0.25,-1.93,-130.20,0.421,-0.005,0.016,-0.907
4011663.000000,-0.003,-0.032,1.007,-0.03,0.01,0.10,-34.18,27.29,-29.42,0.25,-1.93,-130.20,0.421,-0.005,0.016,-0.907
4011673.000000,-0.002,-0.032,1.005,0.01,-0.01,-0.09,-34.42,27.43,-29.38,0.25,-1.93,-130.20,0.421,-0.005,0.016,-0.907
4011683.000000,-0.005,-0.032,1.007,0.13,0.05,-0.07,-35.29,27.33,-29.67,0.25,-1.93,-130.20,0.421,-0.005,0.016,-0.907
4011693.000000,-0.005,-0.035,1.006,0.01,-0.09,-0.03,-35.60,27.48,-29.42,0.25,-1.93,-130.20,0.421,-0.005,0.016,-0.907
4011703.000000,-0.003,-0.034,1.007,0.03,-0.05,-0.07,-35.48,26.83,-29.92,0.25,-1.92,-130.20,0.421,-0.005,0.016,-0.907
4011713.000000,-0.003,-0.034,1.011,0.01,0.05,0.05,-35.71,27.52,-29.63,0.25,-1.92,-130.20,0.421,-0.005,0.016,-0.907
4011723.000000,-0.003,-0.035,1.009,-0.07,0.03,0.06,-35.25,27.60,-29.54,0.25,-1.92,-130.20,0.421,-0.005,0.016,-0.907
4011733.000000,-0.005,-0.034,1.013,0.05,-0.05,-0.09,-35.00,27.67,-29.71,0.25,-1.93,-130.20,0.421,-0.005,0.016,-0.907
4011743.000000,-0.003,-0.034,1.011,-0.07,0.12,0.04,-34.64,28.13,-30.04,0.25,-1.93,-130.20,0.421,-0.005,0.016,-0.907
4011753.000000,-0.003,-0.035,1.006,-0.11,0.14,0.12,-34.88,28.43,-30.08,0.25,-1.93,-130.20,0.421,-0.005,0.016,-0.907
4011763.000000,-0.003,-0.036,1.009,-0.01,-0.13,-0.07,-35.10,28.21,-30.29,0.25,-1.93,-130.20,0.421,-0.005,0.016,-0.907
4011773.000000,-0.002,-0.034,1.011,-0.07,-0.03,-0.05,-34.77,27.98,-29.83,0.25,-1.93,-130.20,0.421,-0.005,0.016,-0.907
4011783.000000,-0.005,-0.032,1.003,0.01,0.07,-0.01,-34.77,27.98,-29.83,0.24,-1.93,-130.20,0.421,-0.005,0.016,-0.907
4011793.000000,-0.006,-0.036,1.009,-0.03,-0.11,-0.01,-34.38,27.25,-29.50,0.24,-1.93,-130.20,0.421,-0.005,0.016,-0.907
4011803.000000,-0.003,-0.035,1.009,0.07,0.09,0.05,-34.23,27.25,-29.50,0.24,-1.93,-130.20,0.421,-0.005,0.016,-0.907
4011813.000000,-0.001,-0.032,1.009,0.01,-0.03,0.03,-34.38,27.25,-29.71,0.24,-1.93,-130.20,0.421,-0.005,0.016,-0.907
4011823.000000,-0.002,-0.035,1.009,0.07,0.12,0.05,-34.14,27.21,-29.58,0.24,-1.93,-130.20,0.421,-0.005,0.016,-0.907
4011833.000000,-0.005,-0.032,1.011,0.03,-0.03,-0.07,-34.14,27.21,-29.58,0.24,-1.93,-130.20,0.421,-0.005,0.016,-0.907
4011843.000000,-0.003,-0.035,1.006,-0.03,0.05,0.03,-35.18,27.21,-29.92,0.24,-1.93,-130.20,0.421,-0.005,0.016,-0.907
4011853.000000,-0.003,-0.036,1.009,0.05,-0.07,0.03,-35.00,27.48,-29.54,0.24,-1.93,-130.20,0.421,-0.005,0.016,-0.907
4011863.000000,-0.006,-0.035,1.010,0.07,-0.01,0.07,-35.48,27.52,-29.50,0.24,-1.93,-130.20,0.421,-0.005,0.016,-0.907
4011873.000000,-0.003,-0.035,1.007,0.01,0.05,-0.13,-35.52,27.56,-29.92,0.24,-1.93,-130.20,0.421,-0.005,0.016,-0.907
4011883.000000,-0.003,-0.031,1.007,-0.03,0.16,0.01,-35.52,27.56,-29.92,0.24,-1.93,-130.20,0.421,-0.005,0.016,-0.907
4011893.000000,-0.007,-0.036,1.010,0.07,-0.03,0.07,-34.38,27.25,-29.46,0.24,-1.93,-130.20,0.421,-0.005,0.016,-0.907
4011903.000000,-0.002,-0.034,1.009,0.05,0.01,-0.01,-34.38,27.25,-29.50,0.24,-1.93,-130.20,0.421,-0.005,0.016,-0.907
4011913.000000,-0.003,-0.031,1.009,-0.09,-0.01,0.06,-34.42,27.43,-29.75,0.24,-1.93,-130.20,0.421,-0.005,0.016,-0.907
4011923.000000,-0.003,-0.035,1.010,0.01,-0.03,-0.05,-34.04,27.60,-29.54,0.24,-1.93,-130.20,0.421,-0.005,0.016,-0.907
4011933.000000,-0.003,-0.032,1.005,0.05,0.09,-0.03,-34.04,27.60,-29.54,0.24,-1.93,-130.20,0.421,-0.005,0.016,-0.907
4011943.000000,-0.003,-0.032,1.011,-0.05,0.01,0.10,-34.38,26.93,-29.67,0.24,-1.93,-130.20,0.421,-0.005,0.016,-0.907
4011953.000000,-0.005,-0.034,1.010,0.05,-0.05,0.10,-35.14,26.79,-29.50,0.24,-1.93,-130.20,0.421,-0.005,0.016,-0.907
4011963.000000,-0.003,-0.031,1.011,0.07,0.07,-0.05,-34.42,26.88,-29.75,0.24,-1.93,-130.20,0.421,-0.005,0.016,-0.907
4011973.000000,-0.006,-0.034,1.011,-0.07,-0.01,0.01,-35.00,26.83,-29.83,0.24,-1.93,-130.20,0.421,-0.005,0.016,-0.907
4011983.000000,-0.005,-0.034,1.010,0.01,-0.01,-0.03,-35.00,26.83,-29.83,0.24,-1.93,-130.20,0.421,-0.005,0.016,-0.907
4011993.000000,-0.005,-0.035,1.006,-0.07,0.12,0.06,-34.92,27.06,-29.63,0.24,-1.93,-130.20,0.421,-0.005,0.016,-0.907
4012003.000000,-0.005,-0.032,1.007,0.07,0.12,-0.03,-35.14,27.29,-29.50,0.24,-1.93,-130.20,0.421,-0.005,0.016,-0.907
4012013.000000,-0.002,-0.032,1.010,-0.03,0.03,-0.03,-35.33,27.17,-29.83,0.24,-1.93,-130.20,0.421,-0.005,0.016,-0.907
4012023.000000,-0.002,-0.035,1.006,-0.03,0.18,0.03,-35.10,27.33,-29.50,0.24,-1.93,-130.20,0.421,-0.005,0.016,-0.907
4012033.000000,-0.003,-0.034,1.006,0.01,0.14,-0.03,-35.10,27.33,-29.50,0.24,-1.93,-130.20,0.421,-0.005,0.016,-0.907
4012043.000000,-0.006,-0.034,1.009,0.01,0.05,-0.03,-35.00,27.17,-29.58,0.24,-1.93,-130.20,0.421,-0.005,0.016,-0.907
4012053.000000,-0.007,-0.031,1.011,-0.01,0.05,0.08,-34.64,27.10,-30.08,0.24,-1.93,-130.20,0.421,-0.005,0.016,-0.907
4012063.000000,-0.005,-0.034,1.009,0.01,0.14,-0.05,-34.77,27.29,-29.83,0.24,-1.93,-130.20,0.421,-0.005,0.016,-0.907
4012073.000000,-0.006,-0.036,1.009,-0.05,-0.05,0.06,-34.96,27.21,-29.58,0.25,-1.93,-130.20,0.421,-0.005,0.016,-0.907
4012083.000000,-0.006,-0.035,1.010,-0.01,0.14,-0.05,-34.96,27.21,-29.58,0.24,-1.93,-130.20,0.421,-0.005,0.016,-0.907
4012093.000000,-0.005,-0.036,1.007,0.01,0.07,0.05,-34.23,27.75,-29.58,0.25,-1.93,-130.20,0.421,-0.005,0.016,-0.907
4012103.000000,-0.005,-0.031,1.005,0.05,0.03,-0.03,-34.04,28.06,-29.58,0.25,-1.93,-130.20,0.421,-0.005,0.016,-0.907
4012113.000000,-0.006,-0.034,1.010,-0.01,-0.03,0.01,-34.00,27.48,-30.08,0.25,-1.93,-130.20,0.421,-0.005,0.016,-0.907
4012123.000000,-0.006,-0.034,1.009,-0.13,-0.01,-0.03,-34.23,27.67,-29.75,0.24,-1.93,-130.20,0.421,-0.005,0.016,-0.907
4012133.000000,-0.003,-0.035,1.006,0.03,-0.01,-0.05,-34.23,27.67,-29.75,0.24,-1.93,-130.20,0.421,-0.005,0.016,-0.907
4012143.000000,-0.006,-0.032,1.011,0.03,0.14,0.01,-35.29,27.38,-29.67,0.24,-1.93,-130.20,0.421,-0.005,0.016,-0.907
4012153.000000,-0.003,-0.030,1.007,0.01,-0.05,0.05,-35.29,27.33,-29.25,0.25,-1.93,-130.20,0.421,-0.005,0.016,-0.907
4012163.000000,-0.003,-0.032,1.005,0.05,0.09,-0.09,-35.52,27.25,-29.63,0.25,-1.93,-130.20,0.421,-0.005,0.016,-0.907
4012173.000000,-0.003,-0.035,1.013,-0.05,-0.07,0.01,-35.10,27.06,-29.54,0.25,-1.93,-130.20,0.421,-0.005,0.016,-0.907
4012183.000000,-0.005,-0.036,1.009,0.07,-0.05,0.03,-35.10,27.06,-29.54,0.24,-1.93,-130.20,0.421,-0.005,0.016,-0.907
4012193.000000,-0.001,-0.032,1.002,-0.01,0.03,-0.05,-35.38,26.75,-29.75,0.24,-1.93,-130.20,0.421,-0.005,0.016,-0.907
4012203.000000,-0.006,-0.034,1.007,0.09,0.09,0.01,-35.38,26.75,-29.75,0.24,-1.93,-130.20,0.421,-0.005,0.016,-0.907
4012213.000000,-0.003,-0.035,1.009,0.01,0.03,-0.03,-35.38,26.75,-29.75,0.24,-1.93,-130.20,0.421,-0.005,0.016,-0.907
4012223.000000,-0.003,-0.035,1.009,0.01,0.07,-0.01,-35.38,26.75,-29.75,0.24,-1.93,-130.20,0.421,-0.005,0.016,-0.907
4012233.000000,-0.006,-0.035,1.005,-0.03,0.05,-0.03,-35.18,26.88,-29.58,0.24,-1.93,-130.20,0.421,-0.005,0.016,-0.907
4012243.000000,-0.003,-0.032,1.003,-0.03,0.03,-0.03,-36.33,26.98,-29.42,0.24,-1.93,-130.20,0.421,-0.005,0.016,-0.907
4012253.000000,-0.002,-0.031,1.007,0.07,-0.07,-0.05,-36.29,27.17,-29.63,0.25,-1.93,-130.20,0.421,-0.005,0.016,-0.907
4012263.000000,-0.007,-0.032,1.013,-0.11,0.03,0.04,-36.02,26.83,-29.63,0.24,-1.93,-130.20,0.421,-0.005,0.016,-0.907
4012273.000000,-0.005,-0.032,1.009,0.01,-0.01,-0.05,-36.33,27.29,-29.71,0.24,-1.93,-130.20,0.421,-0.005,0.016,-0.907
4012283.000000,-0.006,-0.034,1.009,0.11,0.14,0.05,-36.33,27.25,-29.38,0.24,-1.93,-130.20,0.421,-0.005,0.016,-0.907
4012293.000000,-0.003,-0.035,1.005,0.15,0.09,-0.05,-35.38,27.75,-29.42,0.24,-1.93,-130.20,0.421,-0.005,0.016,-0.907
4012303.000000,-0.003,-0.036,1.011,0.01,-0.13,0.01,-35.33,28.06,-29.96,0.25,-1.93,-130.20,0.421,-0.005,0.016,-0.907
4012313.000000,-0.005,-0.032,1.009,-0.09,0.12,-0.01,-35.42,28.13,-29.46,0.24,-1.92,-130.20,0.421,-0.005,0.016,-0.907
4012323.000000,-0.003,-0.036,1.014,-0.03,0.09,-0.07,-35.42,28.13,-30.08,0.24,-1.93,-130.20,0.421,-0.005,0.016,-0.907
4012333.000000,-0.005,-0.035,1.013,0.05,-0.01,0.01,-35.56,28.02,-29.79,0.25,-1.93,-130.20,0.421,-0.005,0.016,-0.907
4012343.000000,-0.005,-0.035,1.003,-0.09,-0.05,-0.05,-35.06,27.56,-29.42,0.25,-1.93,-130.20,0.421,-0.005,0.016,-0.907
4012353.000000,-0.006,-0.035,1.009,0.05,0.05,0.01,-35.10,27.38,-29.63,0.24,-1.93,-130.20,0.421,-0.005,0.016,-0.907
4012363.000000,-0.002,-0.036,1.013,-0.07,-0.07,-0.03,-34.83,27.75,-29.75,0.24,-1.93,-130.20,0.421,-0.005,0.016,-0.907
4012373.000000,-0.002,-0.035,1.009,-0.05,-0.01,0.01,-34.83,27.33,-29.29,0.24,-1.93,-130.20,0.421,-0.005,0.016,-0.907
4012383.000000,-0.003,-0.032,1.009,-0.09,0.07,0.06,-34.92,27.48,-29.67,0.24,-1.93,-130.20,0.421,-0.005,0.016,-0.907
4012393.000000,-0.003,-0.035,1.010,0.03,-0.01,-0.07,-35.38,27.02,-29.63,0.24,-1.93,-130.20,0.421,-0.005,0.016,-0.907
4012403.000000,-0.005,-0.035,1.007,-0.01,0.09,0.01,-35.33,27.38,-29.54,0.24,-1.93,-130.20,0.421,-0.005,0.016,-0.907
4012413.000000,-0.005,-0.034,1.011,-0.05,0.14,0.01,-35.33,27.38,-29.21,0.24,-1.93,-130.20,0.421,-0.005,0.016,-0.907
4012423.000000,-0.003,-0.034,1.009,-0.07,-0.03,-0.01,-35.00,27.29,-29.46,0.25,-1.93,-130.20,0.421,-0.005,0.016,-0.907
4012433.000000,-0.005,-0.034,1.007,-0.09,0.01,-0.03,-35.38,27.43,-29.29,0.25,-1.93,-130.20,0.421,-0.005,0.016,-0.907
4012443.000000,-0.005,-0.034,1.010,-0.05,0.09,0.01,-35.18,27.21,-29.63,0.24,-1.93,-130.20,0.421,-0.005,0.016,-0.907
4012453.000000,-0.001,-0.032,1.010,-0.01,-0.09,0.08,-35.10,27.06,-29.63,0.25,-1.93,-130.20,0.421,-0.005,0.016,-0.907
4012463.000000,-0.005,-0.032,1.009,0.05,0.03,0.07,-35.00,27.06,-29.46,0.24,-1.93,-130.20,0.421,-0.005,0.016,-0.907
4012473.000000,-0.005,-0.034,1.009,-0.09,-0.01,0.04,-35.42,26.79,-29.83,0.24,-1.93,-130.20,0.421,-0.005,0.016,-0.907
4012483.000000,-0.005,-0.035,1.010,-0.01,0.05,0.03,-35.25,26.83,-29.42,0.24,-1.93,-130.20,0.421,-0.005,0.016,-0.907
4012493.000000,-0.002,-0.032,1.010,0.03,-0.11,0.05,-35.48,27.02,-29.67,0.24,-1.93,-130.20,0.421,-0.005,0.016,-0.907
4012503.000000,-0.003,-0.034,1.007,0.11,-0.05,-0.01,-34.92,26.93,-29.75,0.24,-1.93,-130.20,0.421,-0.005,0.016,-0.907
4012513.000000,-0.006,-0.032,1.007,0.05,-0.01,0.03,-35.48,26.93,-29.75,0.24,-1.93,-130.20,0.421,-0.005,0.016,-0.907
4012523.000000,-0.006,-0.034,1.010,0.01,-0.09,0.01,-35.48,26.42,-29.71,0.24,-1.93,-130.20,0.421,-0.005,0.016,-0.907
4012533.000000,-0.006,-0.032,1.011,0.01,0.09,-0.07,-35.71,26.79,-29.58,0.24,-1.93,-130.20,0.421,-0.005,0.016,-0.907
4012543.000000,-0.006,-0.036,1.011,0.05,0.16,0.01,-35.56,26.38,-29.75,0.24,-1.93,-130.20,0.421,-0.005,0.016,-0.907
4012553.000000,-0.003,-0.036,1.009,0.01,0.07,-0.01,-35.60,26.52,-29.63,0.24,-1.93,-130.20,0.421,-0.005,0.016,-0.907
4012563.000000,-0.006,-0.034,1.013,-0.01,0.18,-0.05,-35.60,26.14,-29.58,0.24,-1.93,-130.20,0.421,-0.005,0.016,-0.907
4012573.000000,-0.005,-0.035,1.009,-0.03,0.05,-0.05,-35.52,26.42,-29.50,0.24,-1.93,-130.20,0.421,-0.005,0.016,-0.907
4012583.000000,-0.001,-0.036,1.007,-0.03,-0.03,0.03,-35.71,26.18,-29.54,0.24,-1.93,-130.20,0.421,-0.005,0.016,-0.907
4012593.000000,-0.003,-0.034,1.009,-0.01,0.05,-0.07,-35.64,26.18,-29.67,0.24,-1.93,-130.20,0.421,-0.005,0.016,-0.907
4012603.000000,-0.005,-0.035,1.005,0.05,-0.11,0.05,-35.60,26.14,-29.83,0.24,-1.93,-130.20,0.421,-0.005,0.016,-0.907
4012613.000000,-0.002,-0.035,1.010,-0.05,-0.05,-0.07,-35.42,26.56,-29.67,0.24,-1.93,-130.20,0.421,-0.005,0.016,-0.907
4012623.000000,-0.003,-0.034,1.006,-0.01,0.12,0.05,-35.56,26.71,-29.54,0.24,-1.93,-130.20,0.421,-0.005,0.016,-0.907
4012633.000000,-0.006,-0.034,1.009,-0.05,0.05,-0.01,-35.29,26.42,-29.63,0.24,-1.93,-130.20,0.421,-0.005,0.016,-0.907
4012643.000000,-0.006,-0.035,1.009,-0.03,-0.05,-0.05,-34.68,27.48,-29.63,0.24,-1.93,-130.20,0.421,-0.005,0.016,-0.907
4012653.000000,-0.005,-0.030,1.007,0.07,0.03,0.01,-35.10,27.10,-29.63,0.24,-1.93,-130.20,0.421,-0.005,0.016,-0.907
4012663.000000,-0.007,-0.034,1.011,0.03,-0.05,-0.03,-35.42,27.17,-29.46,0.24,-1.93,-130.20,0.421,-0.005,0.016,-0.907
4012673.000000,-0.006,-0.034,1.006,0.01,-0.03,-0.07,-34.83,27.02,-29.67,0.24,-1.93,-130.20,0.421,-0.005,0.016,-0.907
4012683.000000,-0.005,-0.034,1.003,-0.03,0.01,0.01,-35.06,26.88,-29.67,0.24,-1.93,-130.20,0.421,-0.005,0.016,-0.907
4012693.000000,-0.006,-0.035,1.009,0.05,0.03,-0.05,-34.60,27.71,-29.54,0.24,-1.93,-130.20,0.421,-0.005,0.016,-0.907
4012703.000000,-0.003,-0.035,1.011,0.07,0.05,-0.03,-34.83,27.25,-29.25,0.24,-1.93,-130.20,0.421,-0.005,0.016,-0.907
4012713.000000,-0.002,-0.034,1.011,-0.01,-0.05,-0.07,-34.50,27.79,-29.33,0.24,-1.93,-130.20,0.421,-0.005,0.016,-0.907
4012723.000000,-0.002,-0.032,1.007,-0.01,0.05,0.08,-34.60,27.60,-29.38,0.24,-1.93,-130.20,0.421,-0.005,0.016,-0.907
4012733.000000,-0.005,-0.035,1.010,0.09,-0.07,0.07,-34.64,27.43,-29.08,0.24,-1.93,-130.20,0.421,-0.005,0.016,-0.907
4012743.000000,-0.005,-0.032,1.007,-0.09,0.12,-0.03,-34.14,27.33,-29.46,0.24,-1.93,-130.20,0.421,-0.005,0.016,-0.907
4012753.000000,-0.006,-0.035,1.010,-0.05,0.14,-0.05,-34.27,27.52,-29.46,0.24,-1.93,-130.20,0.421,-0.005,0.016,-0.907
4012763.000000,-0.005,-0.035,1.010,0.03,0.03,0.01,-33.50,27.43,-29.63,0.24,-1.93,-130.20,0.421,-0.005,0.016,-0.907
4012773.000000,-0.006,-0.032,1.005,-0.05,-0.07,0.06,-34.42,27.10,-29.33,0.24,-1.93,-130.20,0.421,-0.005,0.016,-0.907
4012783.000000,-0.003,-0.032,1.007,-0.01,0.03,-0.03,-33.73,27.48,-29.13,0.24,-1.93,-130.20,0.421,-0.005,0.016,-0.907
4012793.000000,-0.007,-0.035,1.010,0.01,-0.03,0.07,-34.92,27.38,-29.58,0.24,-1.93,-130.20,0.421,-0.005,0.016,-0.907
4012803.000000,-0.003,-0.032,1.009,0.07,0.05,-0.05,-35.25,26.83,-29.67,0.24,-1.93,-130.20,0.421,-0.005,0.016,-0.907
4012813.000000,-0.006,-0.032,1.011,0.03,0.01,0.05,-35.38,27.38,-29.71,0.24,-1.93,-130.20,0.421,-0.005,0.016,-0.907
4012823.000000,-0.003,-0.035,1.006,-0.07,0.05,-0.03,-35.29,26.79,-29.54,0.24,-1.93,-130.20,0.421,-0.005,0.016,-0.907
4012833.000000,-0.005,-0.036,1.007,0.05,-0.03,0.03,-35.64,27.10,-29.96,0.24,-1.93,-130.20,0.421,-0.005,0.016,-0.907
4012843.000000,-0.006,-0.038,1.009,0.07,-0.01,-0.01,-34.77,26.52,-29.54,0.24,-1.93,-130.20,0.421,-0.005,0.016,-0.907
4012853.000000,-0.006,-0.038,1.007,-0.01,-0.01,0.01,-35.18,26.06,-29.38,0.24,-1.93,-130.20,0.421,-0.005,0.016,-0.907
4012863.000000,-0.002,-0.036,1.011,0.03,-0.03,-0.03,-34.68,26.29,-29.50,0.24,-1.93,-130.20,0.421,-0.005,0.016,-0.907
4012873.000000,-0.005,-0.032,1.009,0.07,-0.03,-0.09,-34.73,26.25,-29.33,0.24,-1.93,-130.20,0.421,-0.005,0.016,-0.907
4012883.000000,-0.001,-0.034,1.006,-0.09,-0.05,-0.07,-34.73,26.33,-29.33,0.24,-1.93,-130.20,0.421,-0.005,0.016,-0.907
4012893.000000,-0.006,-0.032,1.003,-0.03,0.09,-0.01,-35.10,27.67,-29.58,0.24,-1.93,-130.21,0.421,-0.005,0.016,-0.907
4012903.000000,-0.006,-0.034,1.005,-0.03,0.05,-0.01,-34.92,28.39,-29.25,0.24,-1.93,-130.21,0.421,-0.005,0.016,-0.907
4012913.000000,-0.006,-0.032,1.010,0.13,0.05,0.03,-35.18,28.06,-29.71,0.24,-1.93,-130.21,0.421,-0.005,0.016,-0.907
4012923.000000,-0.006,-0.034,1.013,-0.01,0.01,0.03,-35.18,27.98,-29.67,0.24,-1.93,-130.21,0.421,-0.005,0.016,-0.907
4012933.000000,-0.005,-0.035,1.009,0.03,0.09,-0.05,-35.14,27.98,-29.71,0.24,-1.93,-130.21,0.421,-0.005,0.016,-0.907
4012943.000000,-0.005,-0.035,1.009,0.05,0.01,0.03,-34.60,26.71,-29.42,0.24,-1.93,-130.21,0.421,-0.005,0.016,-0.907
4012953.000000,-0.003,-0.035,1.011,0.01,0.09,0.08,-34.96,26.38,-29.71,0.24,-1.93,-130.21,0.421,-0.005,0.016,-0.907
4012963.000000,-0.002,-0.035,1.013,0.11,-0.07,-0.05,-34.60,26.60,-29.63,0.24,-1.93,-130.20,0.421,-0.005,0.016,-0.907
4012973.000000,-0.003,-0.036,1.006,-0.07,0.20,0.10,-34.73,26.42,-29.54,0.24,-1.93,-130.20,0.421,-0.005,0.016,-0.907
4012983.000000,-0.005,-0.034,1.009,-0.11,0.03,-0.05,-34.83,26.25,-29.54,0.24,-1.93,-130.20,0.421,-0.005,0.016,-0.907
4012993.000000,-0.003,-0.035,1.007,-0.01,0.07,0.05,-34.60,26.93,-29.58,0.24,-1.93,-130.20,0.421,-0.005,0.016,-0.907
4013003.000000,-0.003,-0.034,1.006,0.01,0.03,-0.03,-34.60,27.10,-29.50,0.24,-1.93,-130.20,0.421,-0.005,0.016,-0.907
4013013.000000,-0.003,-0.035,1.009,0.01,-0.09,0.01,-34.50,26.93,-29.13,0.24,-1.93,-130.20,0.421,-0.005,0.016,-0.907
4013023.000000,-0.006,-0.032,1.011,-0.05,0.01,0.03,-34.77,27.17,-29.29,0.24,-1.93,-130.20,0.421,-0.005,0.016,-0.907
4013033.000000,-0.006,-0.035,1.010,-0.01,0.05,-0.05,-34.54,27.48,-29.54,0.24,-1.93,-130.20,0.421,-0.005,0.016,-0.907
4013043.000000,-0.005,-0.035,1.009,-0.07,0.01,0.03,-34.31,27.21,-29.75,0.24,-1.93,-130.20,0.421,-0.005,0.016,-0.907
4013053.000000,-0.002,-0.034,1.010,-0.01,0.05,0.01,-34.31,26.79,-29.17,0.24,-1.93,-130.20,0.421,-0.005,0.016,-0.907
4013063.000000,-0.003,-0.034,1.007,-0.01,-0.03,-0.03,-34.38,26.93,-29.71,0.24,-1.93,-130.20,0.421,-0.005,0.016,-0.907
4013073.000000,-0.005,-0.034,1.009,0.03,0.09,-0.01,-34.18,27.02,-29.46,0.24,-1.93,-130.20,0.421,-0.005,0.016,-0.907
4013083.000000,-0.003,-0.035,1.009,-0.01,-0.01,0.05,-34.18,27.06,-29.42,0.24,-1.93,-130.20,0.421,-0.005,0.016,-0.907
4013093.000000,-0.005,-0.032,1.005,-0.01,0.01,-0.01,-34.42,27.02,-29.71,0.24,-1.93,-130.20,0.421,-0.005,0.016,-0.907
4013103.000000,-0.007,-0.034,1.009,-0.01,0.01,-0.03,-34.23,27.17,-29.63,0.24,-1.93,-130.20,0.421,-0.005,0.016,-0.907
4013113.000000,-0.003,-0.034,1.010,-0.05,-0.03,0.01,-34.64,27.25,-29.63,0.24,-1.93,-130.20,0.421,-0.005,0.016,-0.907
4013123.000000,-0.005,-0.036,1.002,0.07,0.20,0.01,-34.64,26.83,-29.63,0.24,-1.94,-130.20,0.421,-0.005,0.016,-0.907
4013133.000000,-0.006,-0.035,1.009,-0.01,0.14,-0.05,-34.27,27.10,-29.33,0.24,-1.93,-130.20,0.421,-0.005,0.016,-0.907
4013143.000000,-0.006,-0.030,1.007,0.01,-0.07,0.05,-35.00,27.10,-29.42,0.24,-1.93,-130.20,0.421,-0.005,0.016,-0.907
4013153.000000,-0.005,-0.035,1.007,0.01,0.01,-0.01,-34.68,26.52,-29.54,0.24,-1.93,-130.20,0.421,-0.005,0.016,-0.907
4013163.000000,-0.003,-0.030,1.007,0.01,0.09,-0.01,-34.88,27.06,-29.96,0.24,-1.93,-130.20,0.421,-0.005,0.016,-0.907
4013173.000000,-0.003,-0.031,1.009,-0.05,-0.01,-0.07,-34.68,27.25,-29.58,0.24,-1.93,-130.20,0.421,-0.005,0.016,-0.907
4013183.000000,-0.005,-0.034,1.005,-0.01,-0.05,0.03,-34.64,27.10,-29.83,0.24,-1.93,-130.21,0.421,-0.005,0.016,-0.907
4013193.000000,-0.001,-0.032,1.005,-0.07,0.01,0.01,-34.83,26.60,-29.58,0.24,-1.93,-130.21,0.421,-0.005,0.016,-0.907
4013203.000000,-0.003,-0.038,1.006,0.01,0.09,0.05,-35.14,26.98,-29.63,0.24,-1.94,-130.20,0.421,-0.005,0.016,-0.907
4013213.000000,-0.003,-0.034,1.007,0.03,0.01,0.05,-34.77,27.06,-29.50,0.24,-1.93,-130.20,0.421,-0.005,0.016,-0.907
4013223.000000,-0.005,-0.036,1.009,0.11,0.12,0.03,-34.88,27.10,-29.67,0.24,-1.94,-130.20,0.421,-0.005,0.016,-0.907
4013233.000000,-0.006,-0.034,1.010,-0.07,0.01,-0.03,-34.77,27.06,-29.63,0.24,-1.93,-130.20,0.421,-0.005,0.016,-0.907
4013243.000000,-0.006,-0.031,1.009,-0.07,-0.03,0.06,-33.50,26.60,-29.50,0.24,-1.93,-130.20,0.421,-0.005,0.016,-0.907
4013253.000000,-0.006,-0.036,1.007,-0.05,-0.05,0.03,-33.39,26.71,-29.75,0.24,-1.94,-130.20,0.421,-0.005,0.016,-0.907
4013263.000000,-0.005,-0.034,1.010,0.07,0.07,0.03,-33.73,26.83,-29.79,0.24,-1.94,-130.20,0.421,-0.005,0.016,-0.907
4013273.000000,-0.003,-0.034,1.013,-0.09,-0.03,-0.01,-33.63,26.98,-29.63,0.24,-1.94,-130.20,0.421,-0.005,0.016,-0.907
4013283.000000,-0.007,-0.031,1.009,0.09,0.12,0.05,-33.73,27.21,-29.67,0.24,-1.94,-130.20,0.421,-0.005,0.016,-0.907
4013293.000000,-0.002,-0.032,1.007,0.05,0.09,0.01,-33.50,27.10,-29.67,0.24,-1.94,-130.20,0.421,-0.005,0.016,-0.907
4013303.000000,-0.005,-0.035,1.009,-0.03,-0.01,-0.09,-33.23,26.83,-30.00,0.24,-1.94,-130.20,0.421,-0.005,0.016,-0.907
4013313.000000,-0.001,-0.036,1.010,-0.01,0.14,0.03,-33.35,27.21,-29.75,0.24,-1.93,-130.20,0.421,-0.005,0.016,-0.907
4013323.000000,-0.003,-0.036,1.007,0.05,0.05,0.03,-33.39,27.10,-29.71,0.24,-1.94,-130.20,0.421,-0.005,0.016,-0.907
4013333.000000,-0.006,-0.034,1.005,-0.03,-0.09,0.10,-33.00,27.17,-29.46,0.24,-1.93,-130.20,0.421,-0.005,0.016,-0.907
4013343.000000,-0.005,-0.034,1.007,-0.11,0.03,-0.05,-33.77,27.29,-29.71,0.24,-1.93,-130.20,0.421,-0.005,0.016,-0.907
4013353.000000,-0.007,-0.034,1.010,-0.05,0.01,0.01,-33.85,26.98,-29.75,0.24,-1.94,-130.20,0.421,-0.005,0.016,-0.907
4013363.000000,-0.003,-0.032,1.009,0.07,0.16,-0.09,-33.81,27.25,-30.00,0.24,-1.94,-130.20,0.421,-0.005,0.016,-0.907
4013373.000000,-0.006,-0.032,1.009,0.05,0.05,0.05,-33.73,27.48,-29.75,0.24,-1.94,-130.20,0.421,-0.005,0.016,-0.907
4013383.000000,-0.005,-0.030,1.007,-0.03,-0.09,-0.05,-33.92,27.02,-30.00,0.24,-1.94,-130.20,0.421,-0.005,0.016,-0.907
4013393.000000,-0.002,-0.034,1.011,0.07,-0.09,0.09,-33.81,28.02,-29.63,0.24,-1.94,-130.20,0.421,-0.005,0.016,-0.907
4013403.000000,-0.005,-0.035,1.011,-0.07,0.05,0.01,-33.81,28.06,-29.71,0.24,-1.94,-130.20,0.421,-0.005,0.016,-0.907
4013413.000000,-0.006,-0.034,1.006,0.01,0.09,-0.01,-34.14,27.83,-29.79,0.24,-1.94,-130.20,0.421,-0.005,0.016,-0.907
4013423.000000,-0.005,-0.034,1.006,-0.05,-0.01,-0.01,-33.39,28.39,-29.33,0.24,-1.94,-130.20,0.421,-0.005,0.016,-0.907
4013433.000000,-0.002,-0.032,1.007,-0.03,-0.01,0.01,-34.08,28.48,-29.79,0.24,-1.94,-130.20,0.421,-0.005,0.016,-0.907
4013443.000000,-0.002,-0.034,1.007,0.01,0.07,-0.03,-35.38,27.83,-29.67,0.24,-1.94,-130.20,0.421,-0.005,0.016,-0.907
4013453.000000,-0.003,-0.032,1.009,0.03,-0.03,-0.03,-36.17,27.75,-29.54,0.24,-1.94,-130.20,0.421,-0.005,0.016,-0.907
4013464.000000,-0.003,-0.035,1.009,0.03,0.09,-0.11,-35.42,27.33,-29.54,0.24,-1.94,-130.20,0.421,-0.005,0.016,-0.907
4013474.000000,-0.002,-0.035,1.007,-0.01,-0.03,0.05,-35.56,27.79,-29.58,0.24,-1.94,-130.20,0.421,-0.005,0.016,-0.907
4013484.000000,-0.005,-0.034,1.010,0.01,0.05,0.03,-35.79,27.75,-29.50,0.24,-1.94,-130.20,0.421,-0.005,0.016,-0.907
4013494.000000,-0.005,-0.034,1.009,-0.03,-0.03,0.10,-33.96,27.83,-29.50,0.24,-1.94,-130.20,0.421,-0.005,0.016,-0.907
4013504.000000,-0.002,-0.032,1.005,0.03,-0.05,0.03,-33.81,27.93,-29.75,0.24,-1.94,-130.20,0.421,-0.005,0.016,-0.907
4013514.000000,-0.006,-0.030,1.011,0.05,0.03,-0.01,-33.31,27.75,-29.88,0.24,-1.94,-130.20,0.421,-0.005,0.016,-0.907
4013524.000000,-0.006,-0.032,1.010,-0.05,0.05,-0.03,-33.58,27.83,-29.96,0.24,-1.94,-130.20,0.421,-0.005,0.016,-0.907
4013534.000000,-0.005,-0.036,1.005,0.01,-0.03,-0.01,-34.14,27.75,-30.13,0.24,-1.94,-130.20,0.421,-0.005,0.016,-0.907
4013544.000000,-0.006,-0.035,1.013,-0.01,-0.05,0.01,-34.23,27.02,-29.46,0.24,-1.94,-130.20,0.421,-0.005,0.016,-0.907
4013554.000000,-0.005,-0.034,1.009,-0.05,0.05,0.03,-34.08,26.52,-29.54,0.24,-1.93,-130.20,0.421,-0.005,0.016,-0.907
4013564.000000,-0.003,-0.035,1.011,0.07,0.09,0.03,-34.31,26.71,-29.88,0.24,-1.94,-130.20,0.421,-0.005,0.016,-0.907
4013574.000000,-0.003,-0.035,1.011,0.05,0.01,0.03,-34.14,26.56,-29.50,0.24,-1.94,-130.20,0.421,-0.005,0.016,-0.907
4013584.000000,-0.006,-0.032,1.011,-0.07,0.07,-0.01,-34.14,26.29,-29.54,0.24,-1.93,-130.20,0.421,-0.005,0.016,-0.907
4013594.000000,-0.005,-0.035,1.007,-0.01,0.01,-0.01,-33.68,27.02,-29.75,0.24,-1.94,-130.20,0.421,-0.005,0.016,-0.907
4013604.000000,-0.002,-0.036,1.007,0.05,0.05,0.01,-33.96,27.17,-29.63,0.24,-1.94,-130.20,0.421,-0.005,0.016,-0.907
4013614.000000,-0.006,-0.035,1.007,0.01,0.03,-0.03,-33.58,27.33,-29.79,0.24,-1.94,-130.20,0.421,-0.005,0.016,-0.907
4013624.000000,-0.005,-0.034,1.009,0.07,-0.03,-0.05,-33.68,27.10,-29.50,0.24,-1.93,-130.20,0.421,-0.005,0.016,-0.907
4013634.000000,-0.005,-0.034,1.009,-0.01,0.12,0.05,-33.85,27.21,-29.17,0.24,-1.93,-130.20,0.421,-0.005,0.016,-0.907
4013644.000000,-0.007,-0.036,1.007,-0.05,0.07,-0.03,-34.73,27.02,-29.50,0.24,-1.93,-130.20,0.421,-0.005,0.016,-0.907
4013654.000000,-0.005,-0.034,1.009,0.11,0.09,-0.01,-34.46,26.93,-29.79,0.24,-1.93,-130.20,0.421,-0.005,0.016,-0.907
4013664.000000,-0.002,-0.035,1.007,-0.03,0.07,0.06,-34.83,26.60,-29.71,0.24,-1.93,-130.20,0.421,-0.005,0.016,-0.907
4013674.000000,-0.001,-0.034,1.006,-0.13,-0.07,0.01,-34.38,26.88,-29.88,0.24,-1.93,-130.20,0.421,-0.005,0.016,-0.907
4013684.000000,-0.003,-0.034,1.005,0.05,0.20,0.05,-34.60,26.83,-29.96,0.24,-1.94,-130.20,0.421,-0.005,0.016,-0.907
4013694.000000,-0.006,-0.032,1.011,0.07,-0.07,-0.11,-34.31,27.89,-29.50,0.24,-1.93,-130.20,0.421,-0.005,0.016,-0.907
4013704.000000,-0.003,-0.035,1.007,0.03,0.05,0.14,-34.38,28.02,-29.54,0.24,-1.93,-130.20,0.421,-0.005,0.016,-0.907
4013714.000000,-0.002,-0.034,1.009,-0.01,0.03,-0.05,-34.38,27.60,-29.54,0.24,-1.93,-130.20,0.421,-0.005,0.016,-0.907
4013724.000000,-0.006,-0.031,1.006,-0.01,0.01,-0.05,-34.46,27.71,-29.58,0.24,-1.93,-130.20,0.421,-0.005,0.016,-0.907
4013734.000000,-0.007,-0.034,1.009,0.01,-0.05,-0.05,-34.42,28.06,-29.67,0.24,-1.93,-130.20,0.421,-0.005,0.016,-0.907
4013744.000000,-0.002,-0.034,1.007,-0.05,-0.01,0.06,-33.63,27.06,-29.75,0.24,-1.93,-130.20,0.421,-0.005,0.016,-0.907
4013754.000000,-0.006,-0.034,1.009,0.05,0.09,-0.03,-34.00,26.93,-29.88,0.24,-1.93,-130.20,0.421,-0.005,0.016,-0.907
4013764.000000,-0.003,-0.036,1.007,-0.03,0.01,-0.03,-33.46,27.21,-29.58,0.24,-1.93,-130.20,0.421,-0.005,0.016,-0.907
4013774.000000,-0.005,-0.032,1.007,-0.01,0.07,-0.01,-33.81,27.29,-29.58,0.24,-1.93,-130.20,0.421,-0.005,0.016,-0.907
4013784.000000,-0.006,-0.031,1.010,0.05,0.12,0.03,-34.00,26.75,-29.58,0.24,-1.93,-130.20,0.421,-0.005,0.016,-0.907
4013794.000000,-0.003,-0.034,1.006,-0.01,-0.07,-0.05,-35.14,27.48,-29.58,0.24,-1.93,-130.20,0.421,-0.005,0.016,-0.907
4013804.000000,-0.003,-0.034,1.007,-0.05,-0.03,0.01,-35.38,27.56,-29.50,0.24,-1.93,-130.20,0.421,-0.005,0.016,-0.907
4013814.000000,-0.003,-0.031,1.005,0.01,0.07,0.05,-35.56,27.56,-29.75,0.24,-1.93,-130.20,0.421,-0.005,0.016,-0.907
4013824.000000,-0.005,-0.032,1.011,-0.07,-0.07,0.03,-35.14,27.43,-29.42,0.24,-1.93,-130.20,0.421,-0.005,0.016,-0.907
4013834.000000,-0.002,-0.034,1.007,0.03,0.07,-0.01,-35.06,27.67,-30.08,0.24,-1.93,-130.20,0.421,-0.005,0.016,-0.907
4013844.000000,-0.005,-0.035,1.006,-0.05,0.07,-0.01,-35.06,27.67,-30.08,0.24,-1.93,-130.20,0.421,-0.005,0.016,-0.907
4013854.000000,-0.003,-0.032,1.007,0.01,-0.01,-0.01,-35.42,27.10,-29.75,0.24,-1.93,-130.20,0.421,-0.005,0.016,-0.907
4013864.000000,-0.005,-0.035,1.007,-0.03,0.01,-0.13,-35.71,27.21,-29.63,0.24,-1.93,-130.20,0.421,-0.005,0.016,-0.907
4013874.000000,-0.002,-0.035,1.011,0.03,0.05,0.10,-35.38,27.17,-29.96,0.24,-1.93,-130.20,0.421,-0.005,0.016,-0.907
4013884.000000,-0.005,-0.035,1.006,-0.03,-0.01,-0.01,-35.56,27.17,-29.38,0.24,-1.93,-130.20,0.421,-0.005,0.016,-0.907
4013894.000000,-0.006,-0.034,1.010,0.01,0.05,0.05,-35.56,27.17,-29.38,0.24,-1.94,-130.20,0.421,-0.005,0.016,-0.907
4013904.000000,-0.005,-0.034,1.007,0.01,-0.01,-0.05,-35.18,26.64,-29.42,0.24,-1.94,-130.20,0.421,-0.005,0.016,-0.907
4013914.000000,-0.003,-0.034,1.011,-0.05,-0.09,0.01,-34.96,27.06,-30.08,0.24,-1.93,-130.20,0.421,-0.005,0.016,-0.907
4013924.000000,-0.002,-0.032,1.010,-0.07,0.09,-0.03,-35.10,26.75,-29.46,0.24,-1.94,-130.20,0.421,-0.005,0.016,-0.907
4013934.000000,-0.003,-0.034,1.005,-0.05,0.01,0.08,-35.10,26.60,-29.83,0.24,-1.94,-130.20,0.421,-0.005,0.016,-0.907
4013944.000000,-0.003,-0.032,1.011,-0.11,0.01,-0.07,-35.10,26.60,-29.83,0.24,-1.94,-130.20,0.421,-0.005,0.016,-0.907
4013954.000000,-0.003,-0.035,1.010,0.03,0.09,0.03,-33.81,27.52,-29.67,0.24,-1.94,-130.20,0.421,-0.005,0.016,-0.907
4013964.000000,-0.006,-0.032,1.013,0.01,0.05,0.14,-33.96,27.06,-29.46,0.24,-1.94,-130.20,0.421,-0.005,0.016,-0.907
4013974.000000,-0.006,-0.031,1.009,-0.05,-0.03,0.06,-34.77,27.02,-29.58,0.24,-1.94,-130.20,0.421,-0.005,0.016,-0.907
4013984.000000,-0.005,-0.034,1.013,0.07,0.03,-0.05,-34.00,27.17,-29.54,0.24,-1.94,-130.20,0.421,-0.005,0.016,-0.907
4013994.000000,-0.003,-0.035,1.009,0.05,-0.09,0.03,-34.00,27.17,-29.54,0.24,-1.93,-130.20,0.421,-0.005,0.016,-0.907
4014004.000000,-0.009,-0.034,1.009,0.03,0.01,-0.09,-35.33,27.02,-29.58,0.24,-1.93,-130.20,0.421,-0.005,0.016,-0.907
4014014.000000,-0.005,-0.036,1.009,-0.03,0.09,-0.03,-35.48,27.38,-29.42,0.24,-1.93,-130.20,0.421,-0.005,0.016,-0.907
4014024.000000,-0.002,-0.035,1.006,0.05,0.05,0.01,-35.18,27.02,-29.21,0.24,-1.93,-130.20,0.421,-0.005,0.016,-0.907
4014034.000000,-0.005,-0.035,1.006,-0.13,0.03,0.02,-35.18,26.88,-29.50,0.24,-1.93,-130.20,0.421,-0.005,0.016,-0.907
4014044.000000,-0.002,-0.032,1.005,0.05,-0.05,-0.01,-35.18,26.88,-29.50,0.24,-1.94,-130.20,0.421,-0.005,0.016,-0.907
4014054.000000,-0.007,-0.032,1.010,0.13,0.01,0.01,-34.14,27.02,-29.54,0.24,-1.94,-130.20,0.421,-0.005,0.016,-0.907
4014064.000000,-0.005,-0.035,1.006,0.03,0.07,-0.03,-34.46,26.83,-29.71,0.24,-1.93,-130.20,0.421,-0.005,0.016,-0.907
4014074.000000,-0.002,-0.032,1.005,-0.03,0.12,-0.01,-34.42,26.79,-29.75,0.24,-1.93,-130.20,0.421,-0.005,0.016,-0.907
4014084.000000,-0.003,-0.035,1.005,-0.05,0.01,-0.01,-34.68,27.02,-29.75,0.24,-1.93,-130.20,0.421,-0.005,0.016,-0.907
4014094.000000,-0.007,-0.036,1.009,0.13,-0.05,0.01,-34.68,27.02,-29.75,0.24,-1.93,-130.20,0.421,-0.005,0.016,-0.907
4014104.000000,-0.003,-0.035,1.009,-0.07,-0.03,0.06,-34.83,26.83,-29.42,0.24,-1.93,-130.20,0.421,-0.005,0.016,-0.907
4014114.000000,-0.005,-0.034,1.006,0.03,-0.01,0.05,-34.68,26.71,-29.67,0.24,-1.93,-130.20,0.421,-0.005,0.016,-0.907
4014124.000000,-0.005,-0.032,1.006,-0.09,0.09,-0.07,-34.68,27.29,-29.88,0.24,-1.93,-130.20,0.421,-0.005,0.016,-0.907
4014134.000000,-0.003,-0.031,1.006,-0.05,-0.05,-0.01,-34.88,27.38,-29.46,0.24,-1.93,-130.20,0.421,-0.005,0.016,-0.907
4014144.000000,-0.003,-0.036,1.011,-0.03,-0.01,0.01,-34.88,27.38,-29.46,0.24,-1.94,-130.20,0.421,-0.005,0.016,-0.907
4014154.000000,-0.005,-0.031,1.009,-0.03,0.14,-0.07,-34.04,27.06,-29.67,0.24,-1.94,-130.20,0.421,-0.005,0.016,-0.907
4014164.000000,-0.002,-0.036,1.007,-0.05,0.01,-0.03,-34.18,27.29,-29.38,0.24,-1.94,-130.20,0.421,-0.005,0.016,-0.907
4014174.000000,-0.005,-0.035,1.009,-0.03,-0.03,0.03,-34.14,26.88,-29.67,0.24,-1.94,-130.20,0.421,-0.005,0.016,-0.907
4014184.000000,-0.006,-0.034,1.007,-0.03,0.03,-0.09,-34.31,27.21,-29.17,0.24,-1.94,-130.20,0.421,-0.005,0.016,-0.907
4014194.000000,-0.006,-0.036,1.010,-0.07,0.01,0.01,-34.31,27.21,-29.17,0.24,-1.94,-130.20,0.421,-0.005,0.016,-0.907
4014204.000000,-0.003,-0.034,1.007,-0.05,0.03,-0.05,-34.08,27.29,-29.58,0.24,-1.94,-130.20,0.421,-0.005,0.016,-0.907
4014214.000000,-0.005,-0.032,1.010,0.05,0.07,0.07,-34.08,27.29,-29.58,0.24,-1.94,-130.20,0.421,-0.005,0.016,-0.907
4014224.000000,-0.007,-0.031,1.007,0.07,0.03,-0.05,-34.08,27.29,-29.58,0.24,-1.94,-130.20,0.421,-0.005,0.016,-0.907
4014234.000000,-0.006,-0.034,1.007,-0.05,0.05,0.03,-34.08,27.29,-29.58,0.24,-1.94,-130.20,0.421,-0.005,0.016,-0.907
4014244.000000,-0.005,-0.034,1.009,0.05,-0.01,-0.03,-34.08,27.29,-29.58,0.24,-1.94,-130.20,0.421,-0.005,0.016,-0.907
4014254.000000,-0.003,-0.034,1.006,0.01,0.05,0.01,-34.88,26.93,-29.54,0.24,-1.94,-130.20,0.421,-0.005,0.016,-0.907
4014264.000000,-0.005,-0.035,1.010,0.03,0.09,-0.01,-34.96,26.60,-29.25,0.24,-1.94,-130.20,0.421,-0.005,0.016,-0.907
4014274.000000,-0.006,-0.038,1.009,-0.01,0.03,-0.01,-34.46,26.52,-29.50,0.24,-1.94,-130.20,0.421,-0.005,0.016,-0.907
4014284.000000,-0.003,-0.035,1.009,-0.07,0.01,-0.01,-34.68,27.06,-29.50,0.24,-1.94,-130.20,0.421,-0.005,0.016,-0.907
4014294.000000,-0.006,-0.031,1.009,0.01,0.05,-0.09,-34.64,27.17,-29.46,0.24,-1.94,-130.20,0.421,-0.005,0.016,-0.907
4014304.000000,-0.006,-0.035,1.006,-0.07,0.07,-0.05,-35.00,26.60,-29.46,0.24,-1.94,-130.20,0.421,-0.005,0.016,-0.907
4014314.000000,-0.001,-0.034,1.007,-0.03,0.14,0.03,-34.83,26.52,-29.46,0.24,-1.94,-130.20,0.421,-0.005,0.016,-0.907
4014324.000000,-0.006,-0.034,1.011,-0.05,0.05,0.08,-34.88,26.10,-29.25,0.24,-1.94,-130.20,0.421,-0.005,0.016,-0.907
4014334.000000,-0.002,-0.031,1.009,-0.07,0.07,-0.03,-34.68,26.29,-29.33,0.24,-1.94,-130.20,0.421,-0.005,0.016,-0.907
4014344.000000,-0.005,-0.034,1.009,0.01,0.07,-0.01,-35.14,26.33,-29.67,0.24,-1.94,-130.20,0.421,-0.005,0.016,-0.907
4014354.000000,-0.006,-0.034,1.007,0.07,-0.01,-0.01,-35.14,27.33,-29.46,0.24,-1.94,-130.20,0.421,-0.005,0.016,-0.907
4014364.000000,-0.005,-0.036,1.010,-0.01,-0.01,-0.01,-35.00,27.25,-29.46,0.24,-1.94,-130.20,0.421,-0.005,0.016,-0.907
4014374.000000,-0.002,-0.032,1.010,0.09,0.07,0.03,-35.14,27.38,-29.67,0.24,-1.94,-130.20,0.421,-0.005,0.016,-0.907
4014384.000000,-0.005,-0.035,1.009,0.03,-0.05,-0.03,-35.64,26.75,-29.83,0.24,-1.94,-130.20,0.421,-0.005,0.016,-0.907
4014394.000000,-0.005,-0.034,1.009,-0.01,-0.03,-0.09,-34.88,27.10,-29.54,0.24,-1.94,-130.20,0.421,-0.005,0.016,-0.907
4014404.000000,-0.005,-0.035,1.010,-0.11,-0.03,0.04,-35.42,26.93,-29.50,0.24,-1.94,-130.20,0.421,-0.005,0.016,-0.907
4014414.000000,-0.003,-0.035,1.010,0.07,-0.01,-0.03,-35.48,26.60,-29.42,0.24,-1.94,-130.20,0.421,-0.005,0.016,-0.907
4014424.000000,-0.002,-0.035,1.006,0.13,0.09,0.01,-35.79,26.64,-29.63,0.24,-1.94,-130.20,0.421,-0.005,0.016,-0.907
4014434.000000,-0.002,-0.032,1.009,-0.05,0.07,-0.01,-35.25,26.71,-29.96,0.24,-1.94,-130.20,0.421,-0.005,0.016,-0.907
4014444.000000,-0.006,-0.035,1.006,-0.01,0.07,0.01,-35.71,26.64,-29.58,0.24,-1.94,-130.20,0.421,-0.005,0.016,-0.907
4014454.000000,-0.006,-0.036,1.009,0.07,0.05,-0.07,-35.88,27.06,-29.38,0.24,-1.94,-130.20,0.421,-0.005,0.016,-0.907
4014464.000000,-0.002,-0.035,1.013,0.01,0.20,0.08,-35.60,27.52,-29.63,0.24,-1.94,-130.20,0.421,-0.005,0.016,-0.907
4014474.000000,-0.006,-0.036,1.011,-0.07,0.14,0.08,-35.52,27.29,-29.38,0.24,-1.94,-130.20,0.421,-0.005,0.016,-0.907
4014484.000000,-0.003,-0.034,1.002,-0.07,0.01,-0.03,-35.83,27.25,-29.13,0.24,-1.94,-130.20,0.421,-0.005,0.016,-0.907
4014494.000000,-0.005,-0.032,1.011,0.01,0.09,0.03,-35.00,27.60,-29.33,0.24,-1.94,-130.20,0.421,-0.005,0.016,-0.907
4014504.000000,-0.006,-0.035,1.014,-0.01,0.07,0.08,-34.38,27.43,-29.42,0.25,-1.94,-130.20,0.421,-0.005,0.016,-0.907
4014514.000000,-0.006,-0.034,1.007,-0.09,0.01,-0.13,-34.96,27.02,-29.42,0.25,-1.94,-130.20,0.421,-0.005,0.016,-0.907
4014524.000000,-0.005,-0.035,1.003,-0.05,0.01,0.01,-35.14,27.29,-29.50,0.25,-1.94,-130.20,0.421,-0.005,0.016,-0.907
4014534.000000,-0.001,-0.032,1.014,0.03,0.03,0.10,-34.83,27.48,-29.71,0.25,-1.94,-130.20,0.421,-0.005,0.016,-0.907
4014544.000000,-0.005,-0.034,1.009,-0.03,0.14,-0.07,-34.68,27.56,-29.50,0.25,-1.94,-130.20,0.421,-0.005,0.016,-0.907
4014554.000000,-0.006,-0.034,1.009,0.01,-0.03,0.01,-34.64,27.25,-29.63,0.25,-1.94,-130.20,0.421,-0.005,0.016,-0.907
4014564.000000,-0.003,-0.036,1.010,0.05,0.01,0.01,-34.42,27.29,-29.67,0.25,-1.94,-130.20,0.421,-0.005,0.016,-0.907
4014574.000000,-0.006,-0.034,1.013,0.03,-0.01,-0.01,-34.73,27.25,-29.46,0.25,-1.94,-130.20,0.421,-0.005,0.016,-0.907
4014584.000000,-0.006,-0.035,1.011,0.03,0.05,0.05,-34.54,27.33,-29.54,0.25,-1.94,-130.20,0.421,-0.005,0.016,-0.907
4014594.000000,-0.006,-0.034,1.007,-0.01,0.07,0.01,-34.54,26.71,-29.71,0.25,-1.94,-130.20,0.421,-0.005,0.016,-0.907
4014604.000000,-0.006,-0.035,1.006,0.07,0.07,-0.11,-33.96,27.38,-29.67,0.25,-1.94,-130.20,0.421,-0.005,0.016,-0.907
4014614.000000,-0.005,-0.032,1.009,0.05,0.07,0.05,-34.00,27.67,-29.46,0.25,-1.94,-130.20,0.421,-0.005,0.016,-0.907
4014624.000000,-0.003,-0.031,1.003,-0.11,0.16,-0.11,-34.18,27.38,-29.63,0.25,-1.94,-130.20,0.421,-0.005,0.016,-0.907
4014634.000000,-0.002,-0.031,1.010,0.07,0.01,0.05,-33.92,27.56,-29.54,0.25,-1.94,-130.20,0.421,-0.005,0.016,-0.907
4014644.000000,-0.007,-0.032,1.011,-0.03,-0.07,-0.05,-33.92,27.71,-29.42,0.25,-1.94,-130.20,0.421,-0.005,0.016,-0.907
4014654.000000,-0.007,-0.031,1.005,0.01,-0.01,-0.01,-35.33,27.17,-29.63,0.25,-1.94,-130.20,0.421,-0.005,0.016,-0.907
4014664.000000,-0.003,-0.034,1.009,-0.03,-0.07,-0.01,-35.10,27.17,-29.00,0.25,-1.94,-130.20,0.421,-0.005,0.016,-0.907
4014674.000000,-0.005,-0.034,1.009,0.03,0.14,0.12,-35.14,26.98,-29.33,0.25,-1.94,-130.20,0.421,-0.005,0.016,-0.907
4014684.000000,-0.005,-0.034,1.006,0.01,0.07,0.01,-34.96,26.93,-29.88,0.25,-1.94,-130.20,0.421,-0.005,0.016,-0.907
4014694.000000,-0.006,-0.034,1.005,0.03,0.03,-0.03,-35.14,26.79,-29.83,0.25,-1.94,-130.20,0.421,-0.005,0.016,-0.907
4014704.000000,-0.005,-0.034,1.005,-0.05,-0.09,-0.01,-35.10,27.75,-29.58,0.25,-1.94,-130.20,0.421,-0.005,0.016,-0.907
4014714.000000,-0.005,-0.035,1.013,0.07,-0.05,-0.05,-34.96,27.71,-29.79,0.25,-1.94,-130.20,0.421,-0.005,0.016,-0.907
4014724.000000,-0.002,-0.034,1.003,-0.01,0.01,0.08,-35.48,28.02,-29.50,0.25,-1.94,-130.20,0.421,-0.005,0.016,-0.907
4014734.000000,-0.005,-0.034,1.014,-0.01,0.07,-0.09,-35.42,27.52,-29.29,0.25,-1.94,-130.20,0.421,-0.005,0.016,-0.907
4014744.000000,-0.006,-0.032,1.009,0.01,-0.01,0.01,-35.29,27.89,-29.42,0.25,-1.94,-130.20,0.421,-0.005,0.016,-0.907
4014754.000000,-0.003,-0.034,1.009,0.05,-0.03,-0.01,-34.73,27.38,-29.54,0.25,-1.94,-130.20,0.421,-0.005,0.016,-0.907
4014764.000000,-0.006,-0.034,1.007,-0.03,0.07,0.12,-34.31,27.52,-29.58,0.25,-1.94,-130.20,0.421,-0.005,0.016,-0.907
4014774.000000,-0.007,-0.035,1.009,-0.01,0.09,0.01,-34.46,27.60,-29.38,0.25,-1.94,-130.20,0.421,-0.005,0.016,-0.907
4014784.000000,-0.007,-0.035,1.010,0.05,0.07,-0.01,-34.77,27.29,-29.38,0.25,-1.94,-130.20,0.421,-0.005,0.016,-0.907
4014794.000000,-0.006,-0.034,1.005,0.01,0.05,-0.01,-34.23,27.48,-29.33,0.25,-1.94,-130.20,0.421,-0.005,0.016,-0.907
4014804.000000,-0.001,-0.038,1.006,-0.07,0.01,-0.01,-34.83,27.02,-29.67,0.25,-1.94,-130.20,0.421,-0.005,0.016,-0.907
4014814.000000,-0.003,-0.035,1.007,-0.09,0.05,0.01,-34.96,26.83,-29.54,0.25,-1.94,-130.20,0.421,-0.005,0.016,-0.907
4014824.000000,-0.005,-0.031,1.007,0.03,0.01,-0.03,-35.00,26.64,-29.71,0.25,-1.94,-130.20,0.421,-0.005,0.016,-0.907
4014834.000000,-0.006,-0.036,1.010,0.03,-0.03,-0.03,-34.96,26.25,-29.38,0.25,-1.94,-130.20,0.421,-0.005,0.016,-0.907
4014844.000000,-0.001,-0.034,1.009,-0.05,0.03,-0.07,-34.92,26.71,-29.58,0.25,-1.94,-130.20,0.421,-0.005,0.016,-0.907
4014854.000000,-0.003,-0.034,1.007,-0.01,0.07,0.03,-35.33,26.83,-29.75,0.25,-1.94,-130.21,0.421,-0.005,0.016,-0.907
4014864.000000,-0.003,-0.034,1.010,0.05,0.01,-0.03,-34.92,26.56,-29.63,0.25,-1.94,-130.21,0.421,-0.005,0.016,-0.907
4014874.000000,-0.003,-0.036,1.007,0.01,0.16,-0.03,-35.48,26.83,-29.79,0.25,-1.94,-130.21,0.421,-0.005,0.016,-0.907
4014884.000000,-0.006,-0.035,1.009,0.05,0.12,0.01,-35.14,26.75,-29.67,0.25,-1.94,-130.21,0.421,-0.005,0.016,-0.907
4014894.000000,-0.005,-0.032,1.009,0.03,-0.01,0.07,-35.10,26.88,-29.25,0.25,-1.94,-130.21,0.421,-0.005,0.016,-0.907
4014904.000000,-0.001,-0.035,1.007,-0.11,-0.03,0.01,-35.56,26.83,-29.50,0.25,-1.94,-130.21,0.421,-0.005,0.016,-0.907
4014914.000000,-0.005,-0.034,1.009,0.21,0.16,-0.07,-34.96,27.10,-29.79,0.25,-1.94,-130.21,0.421,-0.005,0.016,-0.907
4014924.000000,-0.003,-0.035,1.009,0.03,0.07,0.05,-35.75,26.83,-29.50,0.25,-1.94,-130.21,0.421,-0.005,0.016,-0.907
4014934.000000,-0.005,-0.034,1.011,0.05,0.01,0.01,-35.10,26.93,-29.58,0.25,-1.94,-130.21,0.421,-0.005,0.016,-0.907
4014944.000000,-0.005,-0.032,1.006,-0.09,0.03,-0.03,-35.18,27.10,-29.63,0.25,-1.94,-130.21,0.421,-0.005,0.016,-0.907
4014954.000000,-0.006,-0.032,1.009,0.01,-0.09,-0.07,-35.64,27.02,-29.50,0.25,-1.94,-130.21,0.421,-0.005,0.016,-0.907
4014964.000000,-0.005,-0.035,1.009,0.01,0.07,0.01,-35.48,27.10,-29.58,0.25,-1.94,-130.21,0.421,-0.005,0.016,-0.907
4014974.000000,-0.005,-0.034,1.009,0.03,0.14,-0.01,-35.98,27.33,-29.54,0.25,-1.94,-130.21,0.421,-0.005,0.016,-0.907
4014984.000000,-0.002,-0.032,1.011,0.01,0.09,0.05,-36.39,26.83,-29.46,0.25,-1.94,-130.21,0.421,-0.005,0.016,-0.907
4014994.000000,-0.002,-0.034,1.011,0.11,0.09,0.05,-35.98,26.98,-29.75,0.25,-1.94,-130.21,0.421,-0.005,0.016,-0.907
4015004.000000,-0.003,-0.034,1.006,-0.07,0.12,-0.01,-35.83,26.98,-29.46,0.25,-1.94,-130.20,0.421,-0.005,0.016,-0.907
4015014.000000,-0.007,-0.031,1.003,0.05,0.03,0.01,-36.39,27.02,-29.58,0.25,-1.94,-130.20,0.421,-0.005,0.016,-0.907
4015024.000000,-0.003,-0.035,1.009,-0.03,0.05,0.08,-36.25,26.79,-29.83,0.25,-1.94,-130.20,0.421,-0.005,0.016,-0.907
4015034.000000,-0.002,-0.035,1.006,0.01,0.01,0.01,-36.29,27.02,-29.50,0.25,-1.94,-130.20,0.421,-0.005,0.016,-0.907
4015044.000000,-0.003,-0.035,1.010,0.11,-0.07,-0.01,-35.98,26.88,-29.67,0.25,-1.93,-130.20,0.421,-0.005,0.016,-0.907
4015054.000000,-0.005,-0.034,1.010,-0.05,-0.09,0.01,-35.10,27.75,-29.58,0.25,-1.93,-130.20,0.421,-0.005,0.016,-0.907
4015064.000000,-0.005,-0.032,1.010,0.03,-0.01,0.07,-34.64,27.75,-29.29,0.25,-1.93,-130.20,0.421,-0.005,0.016,-0.907
4015074.000000,-0.005,-0.032,1.010,0.01,0.01,0.03,-34.83,27.56,-29.67,0.25,-1.93,-130.20,0.421,-0.005,0.016,-0.907
4015084.000000,-0.009,-0.034,1.007,-0.01,0.12,0.08,-35.29,27.93,-29.38,0.25,-1.93,-130.20,0.421,-0.005,0.016,-0.907
4015094.000000,-0.007,-0.034,1.015,-0.01,0.07,0.05,-35.64,27.56,-29.58,0.25,-1.93,-130.20,0.421,-0.005,0.016,-0.907
4015104.000000,-0.006,-0.034,1.010,0.07,0.01,0.03,-34.31,27.56,-29.54,0.25,-1.93,-130.20,0.421,-0.005,0.016,-0.907
4015114.000000,-0.006,-0.034,1.007,0.07,-0.07,-0.03,-34.00,27.89,-29.88,0.25,-1.93,-130.20,0.421,-0.005,0.016,-0.907
4015124.000000,-0.006,-0.034,1.007,-0.05,0.09,-0.01,-34.23,27.52,-29.63,0.25,-1.93,-130.20,0.421,-0.005,0.016,-0.907
4015134.000000,-0.006,-0.032,1.009,0.07,0.12,-0.03,-34.23,27.83,-29.63,0.25,-1.93,-130.20,0.421,-0.005,0.016,-0.907
4015144.000000,-0.001,-0.034,1.005,-0.03,0.07,0.01,-34.00,27.75,-29.83,0.25,-1.93,-130.20,0.421,-0.005,0.016,-0.907
4015154.000000,-0.005,-0.035,1.005,-0.03,0.05,-0.11,-34.77,26.02,-29.38,0.25,-1.93,-130.20,0.421,-0.005,0.016,-0.907
4015164.000000,-0.001,-0.034,1.005,-0.01,0.09,0.12,-34.42,26.18,-29.29,0.25,-1.93,-130.20,0.421,-0.005,0.016,-0.907
4015174.000000,-0.006,-0.035,1.014,-0.01,0.01,-0.09,-34.73,25.96,-29.04,0.25,-1.93,-130.20,0.421,-0.005,0.016,-0.907
4015184.000000,-0.005,-0.032,1.010,-0.07,-0.01,-0.05,-34.14,25.83,-29.29,0.25,-1.94,-130.20,0.421,-0.005,0.016,-0.907
4015194.000000,-0.003,-0.035,1.007,-0.01,0.09,0.01,-34.92,25.88,-29.17,0.25,-1.94,-130.20,0.421,-0.005,0.016,-0.907
4015204.000000,-0.005,-0.035,1.006,0.07,0.07,-0.01,-35.10,26.83,-29.71,0.25,-1.94,-130.20,0.421,-0.005,0.016,-0.907
4015214.000000,-0.005,-0.034,1.009,0.03,-0.01,0.01,-35.38,26.93,-29.79,0.25,-1.94,-130.20,0.421,-0.005,0.016,-0.907
4015224.000000,-0.005,-0.035,1.010,-0.07,0.03,-0.03,-35.00,26.79,-29.17,0.25,-1.94,-130.20,0.421,-0.005,0.016,-0.907
4015234.000000,-0.003,-0.034,1.009,0.03,-0.01,0.05,-35.14,26.93,-29.79,0.25,-1.94,-130.20,0.421,-0.005,0.016,-0.907
4015244.000000,-0.003,-0.032,1.010,0.05,-0.01,-0.03,-35.18,26.60,-29.25,0.25,-1.94,-130.20,0.421,-0.005,0.016,-0.907
4015254.000000,-0.005,-0.032,1.006,0.07,-0.03,0.03,-34.64,27.48,-29.50,0.25,-1.94,-130.20,0.421,-0.005,0.016,-0.907
4015264.000000,-0.006,-0.034,1.009,0.03,0.05,-0.01,-34.68,27.43,-29.46,0.25,-1.93,-130.20,0.421,-0.005,0.016,-0.907
4015274.000000,-0.005,-0.034,1.007,0.01,0.01,-0.05,-34.60,27.71,-29.42,0.25,-1.93,-130.20,0.421,-0.005,0.016,-0.907
4015284.000000,-0.003,-0.032,1.010,-0.09,-0.05,0.01,-34.54,27.25,-29.29,0.25,-1.93,-130.20,0.421,-0.005,0.016,-0.907
4015294.000000,-0.006,-0.035,1.009,0.05,0.12,0.03,-34.73,27.43,-29.08,0.25,-1.93,-130.20,0.421,-0.005,0.016,-0.907
4015304.000000,-0.003,-0.034,1.011,-0.03,-0.03,-0.01,-34.92,26.93,-29.42,0.25,-1.93,-130.20,0.421,-0.005,0.016,-0.907
4015314.000000,-0.002,-0.034,1.006,0.07,-0.11,-0.01,-35.06,26.71,-29.54,0.25,-1.93,-130.20,0.421,-0.005,0.016,-0.907
4015324.000000,-0.005,-0.034,1.009,-0.01,0.05,0.03,-34.88,26.83,-29.46,0.25,-1.93,-130.20,0.421,-0.005,0.016,-0.907
4015334.000000,-0.003,-0.032,1.005,0.05,0.05,-0.03,-34.83,26.56,-29.50,0.25,-1.93,-130.20,0.421,-0.005,0.016,-0.907
4015344.000000,-0.007,-0.036,1.011,0.01,0.01,-0.05,-35.29,26.79,-29.42,0.25,-1.93,-130.20,0.421,-0.005,0.016,-0.907
4015354.000000,-0.006,-0.035,1.005,-0.05,0.07,0.03,-35.10,26.83,-29.42,0.25,-1.93,-130.20,0.421,-0.005,0.016,-0.907
4015364.000000,-0.007,-0.036,1.011,0.01,0.01,0.08,-35.71,27.21,-29.75,0.25,-1.93,-130.20,0.421,-0.005,0.016,-0.907
4015374.000000,-0.005,-0.035,1.006,0.01,0.03,0.05,-35.06,27.38,-29.79,0.25,-1.93,-130.20,0.421,-0.005,0.016,-0.907
4015384.000000,-0.005,-0.031,1.006,-0.01,-0.07,0.01,-35.33,27.25,-29.54,0.25,-1.93,-130.20,0.421,-0.005,0.016,-0.907
4015394.000000,-0.005,-0.032,1.007,-0.01,0.03,-0.03,-35.42,27.10,-29.58,0.25,-1.93,-130.20,0.421,-0.005,0.016,-0.907
4015404.000000,-0.003,-0.034,1.010,-0.03,0.16,0.01,-34.96,26.64,-29.54,0.25,-1.93,-130.20,0.421,-0.005,0.016,-0.907
4015414.000000,-0.003,-0.036,1.003,0.01,0.12,0.03,-34.77,26.83,-29.33,0.25,-1.93,-130.20,0.421,-0.005,0.016,-0.907
4015424.000000,-0.005,-0.035,1.007,-0.03,0.05,0.03,-34.96,26.52,-29.67,0.25,-1.93,-130.20,0.421,-0.005,0.016,-0.907
4015434.000000,-0.007,-0.031,1.009,-0.01,0.12,0.01,-34.96,26.64,-29.21,0.25,-1.94,-130.20,0.421,-0.005,0.016,-0.907
4015444.000000,-0.007,-0.034,1.011,0.05,-0.09,-0.05,-35.06,26.38,-29.46,0.25,-1.94,-130.20,0.421,-0.005,0.016,-0.907
4015454.000000,-0.005,-0.031,1.005,-0.05,-0.01,0.14,-35.52,26.71,-29.63,0.25,-1.94,-130.20,0.421,-0.005,0.016,-0.907
4015464.000000,-0.005,-0.032,1.010,-0.01,0.09,-0.11,-35.38,26.83,-29.58,0.25,-1.94,-130.20,0.421,-0.005,0.016,-0.907
4015474.000000,-0.003,-0.035,1.003,0.03,0.14,-0.03,-35.60,26.64,-29.33,0.25,-1.94,-130.20,0.421,-0.005,0.016,-0.907
4015484.000000,-0.002,-0.032,1.001,0.01,0.03,0.01,-35.25,26.71,-29.21,0.25,-1.94,-130.20,0.421,-0.005,0.016,-0.907
4015494.000000,-0.005,-0.031,1.007,-0.05,0.03,0.08,-35.56,26.71,-29.58,0.25,-1.94,-130.20,0.421,-0.005,0.016,-0.907
4015504.000000,-0.006,-0.034,1.011,-0.09,-0.07,-0.03,-35.18,27.02,-29.79,0.25,-1.94,-130.20,0.421,-0.005,0.016,-0.907
4015514.000000,-0.007,-0.035,1.006,0.09,0.01,0.01,-35.25,27.56,-29.54,0.25,-1.94,-130.20,0.421,-0.005,0.016,-0.907
4015524.000000,-0.006,-0.034,1.010,-0.01,0.09,-0.03,-35.38,27.48,-29.42,0.25,-1.94,-130.20,0.421,-0.005,0.016,-0.907
4015534.000000,-0.005,-0.035,1.007,0.11,-0.03,0.01,-35.18,27.48,-29.75,0.25,-1.94,-130.20,0.421,-0.005,0.016,-0.907
4015544.000000,-0.005,-0.034,1.009,-0.01,0.07,-0.05,-34.92,27.43,-30.04,0.25,-1.93,-130.20,0.421,-0.005,0.016,-0.907
4015554.000000,-0.003,-0.035,1.009,-0.05,0.12,0.03,-34.77,26.93,-29.54,0.25,-1.93,-130.20,0.421,-0.005,0.016,-0.907
4015564.000000,-0.006,-0.031,1.011,-0.03,-0.01,-0.03,-34.68,26.75,-29.71,0.25,-1.94,-130.20,0.421,-0.005,0.016,-0.907
4015574.000000,-0.003,-0.034,1.009,0.01,0.03,0.01,-34.96,26.79,-29.71,0.25,-1.94,-130.20,0.421,-0.005,0.016,-0.907
4015584.000000,-0.006,-0.034,1.013,0.01,-0.07,-0.05,-35.00,26.60,-29.88,0.25,-1.94,-130.20,0.421,-0.005,0.016,-0.907
4015594.000000,-0.005,-0.032,1.006,-0.07,0.12,-0.01,-35.06,26.56,-30.04,0.25,-1.94,-130.20,0.421,-0.005,0.016,-0.907
4015604.000000,-0.005,-0.034,1.009,0.01,0.01,-0.01,-34.92,26.83,-29.75,0.25,-1.94,-130.20,0.421,-0.005,0.016,-0.907
4015614.000000,-0.005,-0.034,1.013,0.07,-0.13,-0.01,-35.14,27.17,-29.79,0.25,-1.94,-130.21,0.421,-0.005,0.016,-0.907
4015624.000000,-0.005,-0.034,1.010,-0.03,0.07,-0.01,-35.25,27.06,-29.71,0.25,-1.93,-130.21,0.421,-0.005,0.016,-0.907
4015634.000000,-0.006,-0.030,1.007,0.03,0.22,0.03,-35.06,26.98,-29.50,0.25,-1.94,-130.21,0.421,-0.005,0.016,-0.907
4015644.000000,-0.002,-0.035,1.007,-0.05,-0.01,-0.11,-35.06,26.98,-29.21,0.25,-1.94,-130.20,0.421,-0.005,0.016,-0.907
4015654.000000,-0.005,-0.032,1.010,0.03,0.09,0.03,-35.06,26.64,-29.50,0.25,-1.93,-130.21,0.421,-0.005,0.016,-0.907
4015664.000000,-0.005,-0.035,1.010,0.09,0.05,0.03,-34.83,26.60,-29.79,0.25,-1.93,-130.21,0.421,-0.005,0.016,-0.907
4015674.000000,-0.002,-0.032,1.010,0.01,0.03,0.01,-35.00,26.93,-29.75,0.25,-1.93,-130.21,0.421,-0.005,0.016,-0.907
4015684.000000,-0.006,-0.034,1.011,-0.03,0.03,0.06,-34.92,26.79,-29.79,0.25,-1.93,-130.20,0.421,-0.005,0.016,-0.907
4015694.000000,-0.005,-0.034,1.007,0.03,0.01,-0.01,-34.92,26.52,-29.75,0.25,-1.93,-130.20,0.421,-0.005,0.016,-0.907
4015704.000000,-0.006,-0.032,1.007,0.01,0.12,0.08,-35.00,27.93,-29.71,0.25,-1.93,-130.20,0.421,-0.005,0.016,-0.907
4015714.000000,-0.007,-0.034,1.009,-0.05,0.01,-0.09,-35.00,27.67,-29.79,0.25,-1.93,-130.20,0.421,-0.005,0.016,-0.907
4015724.000000,-0.003,-0.036,1.009,-0.09,0.03,0.06,-35.42,27.83,-29.58,0.25,-1.93,-130.20,0.421,-0.005,0.016,-0.907
4015734.000000,-0.005,-0.035,1.011,-0.05,0.09,-0.01,-35.14,27.75,-29.88,0.25,-1.93,-130.20,0.421,-0.005,0.016,-0.907
4015744.000000,-0.003,-0.032,1.010,0.05,0.07,-0.03,-34.60,27.75,-29.67,0.25,-1.94,-130.20,0.421,-0.005,0.016,-0.907
4015754.000000,-0.003,-0.031,1.011,0.05,0.05,0.05,-34.64,27.25,-29.67,0.25,-1.93,-130.20,0.421,-0.005,0.016,-0.907
4015764.000000,-0.002,-0.038,1.005,-0.03,-0.09,0.01,-34.83,26.88,-29.33,0.26,-1.93,-130.20,0.421,-0.005,0.016,-0.907
4015774.000000,-0.005,-0.035,1.007,0.03,-0.01,-0.01,-35.10,26.79,-29.46,0.25,-1.93,-130.20,0.421,-0.005,0.016,-0.907
4015784.000000,-0.003,-0.032,1.009,-0.07,-0.03,-0.01,-34.73,26.60,-29.71,0.25,-1.93,-130.20,0.421,-0.005,0.016,-0.907
4015794.000000,-0.005,-0.034,1.013,0.03,0.07,-0.05,-34.46,26.75,-29.75,0.25,-1.93,-130.20,0.421,-0.005,0.016,-0.907
4015804.000000,-0.001,-0.032,1.009,0.05,0.03,-0.03,-35.56,27.10,-29.58,0.25,-1.93,-130.20,0.421,-0.005,0.016,-0.907
4015814.000000,-0.003,-0.035,1.009,0.01,0.14,0.03,-34.96,27.25,-29.21,0.25,-1.93,-130.20,0.421,-0.005,0.016,-0.907
4015824.000000,-0.006,-0.035,1.009,0.05,0.14,0.03,-35.33,27.29,-29.50,0.25,-1.93,-130.20,0.421,-0.005,0.016,-0.907
4015834.000000,-0.005,-0.036,1.009,-0.05,-0.11,-0.05,-35.42,27.43,-29.29,0.25,-1.93,-130.21,0.421,-0.005,0.016,-0.907
4015844.000000,-0.006,-0.034,1.003,0.01,0.05,0.03,-35.48,27.06,-29.38,0.25,-1.93,-130.21,0.421,-0.005,0.016,-0.907
4015854.000000,-0.005,-0.034,1.009,-0.03,0.03,-0.05,-35.48,27.06,-29.38,0.25,-1.93,-130.21,0.421,-0.005,0.016,-0.907
4015864.000000,-0.005,-0.034,1.011,0.03,-0.03,0.01,-35.00,27.48,-29.38,0.25,-1.93,-130.21,0.421,-0.005,0.016,-0.907
4015874.000000,-0.002,-0.035,1.009,-0.01,-0.01,0.10,-34.88,27.29,-29.38,0.25,-1.93,-130.21,0.421,-0.005,0.016,-0.907
4015884.000000,-0.006,-0.034,1.007,-0.15,0.12,-0.03,-34.88,27.29,-29.58,0.25,-1.93,-130.20,0.421,-0.005,0.016,-0.907
4015894.000000,-0.006,-0.034,1.007,0.09,-0.01,0.07,-34.88,27.02,-29.67,0.25,-1.94,-130.21,0.421,-0.005,0.016,-0.907
4015904.000000,-0.005,-0.036,1.011,0.01,0.05,-0.05,-34.88,27.02,-29.67,0.25,-1.93,-130.20,0.421,-0.005,0.016,-0.907
4015914.000000,-0.006,-0.034,1.010,0.05,0.03,0.05,-34.96,27.29,-29.96,0.25,-1.93,-130.20,0.421,-0.005,0.016,-0.907
4015924.000000,-0.005,-0.032,1.009,0.03,0.07,0.01,-35.10,27.06,-29.71,0.25,-1.93,-130.20,0.421,-0.005,0.016,-0.907
4015934.000000,-0.006,-0.036,1.011,0.11,0.05,-0.07,-35.48,27.10,-29.67,0.25,-1.93,-130.20,0.421,-0.005,0.016,-0.907
4015944.000000,-0.003,-0.032,1.005,-0.07,-0.01,-0.01,-34.96,27.17,-29.67,0.25,-1.93,-130.21,0.421,-0.005,0.016,-0.907
4015955.000000,-0.005,-0.034,1.007,-0.05,0.05,-0.05,-34.96,27.17,-29.67,0.25,-1.93,-130.21,0.421,-0.005,0.016,-0.907
4015965.000000,-0.005,-0.034,1.007,0.01,0.05,-0.07,-34.83,27.02,-29.46,0.25,-1.93,-130.21,0.421,-0.005,0.016,-0.907
4015975.000000,-0.007,-0.034,1.013,-0.01,-0.03,-0.01,-34.73,27.06,-29.29,0.25,-1.93,-130.21,0.421,-0.005,0.016,-0.907
4015985.000000,-0.006,-0.034,1.007,-0.07,0.03,0.08,-34.42,27.06,-29.54,0.25,-1.93,-130.21,0.421,-0.005,0.016,-0.907
4015995.000000,-0.006,-0.035,1.011,0.11,0.03,0.01,-34.83,27.25,-29.42,0.25,-1.93,-130.21,0.421,-0.005,0.016,-0.907
4016005.000000,-0.006,-0.035,1.011,-0.03,0.05,-0.01,-34.83,27.25,-29.42,0.25,-1.93,-130.21,0.421,-0.005,0.016,-0.907
4016015.000000,-0.003,-0.034,1.009,-0.09,-0.01,0.01,-34.77,26.98,-29.54,0.25,-1.93,-130.21,0.421,-0.005,0.016,-0.907
4016025.000000,-0.006,-0.035,1.007,0.01,0.09,0.05,-34.54,27.10,-29.29,0.25,-1.93,-130.21,0.421,-0.005,0.016,-0.907
4016035.000000,-0.002,-0.032,1.009,0.03,0.05,-0.05,-35.14,27.10,-29.46,0.25,-1.93,-130.21,0.421,-0.005,0.016,-0.907
4016045.000000,-0.003,-0.031,1.009,-0.05,0.05,0.10,-34.92,27.29,-29.46,0.25,-1.93,-130.21,0.421,-0.005,0.016,-0.907
4016055.000000,-0.003,-0.035,1.011,0.01,0.05,-0.01,-34.92,27.29,-29.46,0.25,-1.93,-130.21,0.421,-0.005,0.016,-0.907
4016065.000000,-0.005,-0.032,1.006,-0.05,0.14,0.10,-35.18,27.17,-29.67,0.25,-1.93,-130.21,0.421,-0.005,0.016,-0.907
4016075.000000,-0.006,-0.031,1.007,-0.01,0.05,0.05,-34.83,26.79,-29.63,0.25,-1.93,-130.20,0.421,-0.005,0.016,-0.907
4016085.000000,-0.007,-0.032,1.013,0.05,0.12,-0.03,-35.29,26.71,-29.96,0.25,-1.93,-130.20,0.421,-0.005,0.016,-0.907
4016095.000000,-0.005,-0.035,1.005,-0.01,0.05,0.03,-35.25,27.06,-29.79,0.26,-1.93,-130.20,0.421,-0.005,0.016,-0.907
4016105.000000,-0.007,-0.035,1.009,0.01,-0.07,-0.07,-35.25,27.06,-29.79,0.26,-1.93,-130.20,0.421,-0.005,0.016,-0.907
4016115.000000,-0.006,-0.035,1.011,0.03,0.09,0.03,-35.14,27.25,-29.67,0.26,-1.93,-130.20,0.421,-0.005,0.016,-0.907
4016125.000000,-0.002,-0.034,1.009,0.03,0.14,0.05,-35.33,27.33,-29.88,0.26,-1.93,-130.20,0.421,-0.005,0.016,-0.907
4016135.000000,-0.005,-0.031,1.006,0.09,0.12,-0.11,-34.96,27.29,-29.50,0.26,-1.93,-130.20,0.421,-0.005,0.016,-0.907
4016145.000000,-0.005,-0.034,1.009,-0.05,-0.01,0.06,-35.14,27.02,-29.88,0.26,-1.93,-130.20,0.421,-0.005,0.016,-0.907
4016155.000000,-0.005,-0.032,1.006,-0.03,-0.09,-0.03,-35.14,27.02,-29.88,0.26,-1.93,-130.20,0.421,-0.005,0.016,-0.907
4016165.000000,-0.005,-0.035,1.007,-0.03,-0.07,-0.01,-34.54,27.38,-29.46,0.26,-1.93,-130.20,0.421,-0.005,0.016,-0.907
4016175.000000,-0.003,-0.034,1.009,-0.01,0.05,-0.09,-34.92,27.56,-29.42,0.26,-1.93,-130.20,0.421,-0.005,0.016,-0.907
4016185.000000,-0.003,-0.036,1.009,0.03,0.12,0.01,-34.50,27.56,-29.46,0.26,-1.93,-130.21,0.421,-0.005,0.016,-0.907
4016195.000000,-0.002,-0.034,1.005,0.03,-0.05,0.03,-34.27,27.67,-29.50,0.26,-1.93,-130.21,0.421,-0.005,0.016,-0.907
4016205.000000,-0.003,-0.032,1.007,-0.01,0.05,-0.01,-34.27,27.67,-29.50,0.26,-1.93,-130.20,0.421,-0.005,0.016,-0.907
4016215.000000,-0.002,-0.034,1.013,0.01,-0.01,0.01,-34.60,27.75,-29.75,0.26,-1.93,-130.20,0.421,-0.005,0.016,-0.907
4016225.000000,-0.002,-0.032,1.007,-0.01,0.18,0.06,-34.73,27.83,-29.17,0.26,-1.93,-130.20,0.421,-0.005,0.016,-0.907
4016235.000000,-0.003,-0.035,1.009,0.01,0.01,-0.07,-34.31,28.02,-29.42,0.26,-1.93,-130.20,0.421,-0.005,0.016,-0.907
4016245.000000,-0.002,-0.034,1.009,-0.03,-0.09,-0.01,-34.31,28.02,-29.42,0.26,-1.93,-130.21,0.421,-0.005,0.016,-0.907
4016255.000000,-0.005,-0.034,1.007,-0.05,0.01,-0.09,-34.31,28.02,-29.42,0.26,-1.93,-130.21,0.421,-0.005,0.016,-0.907
4016265.000000,-0.006,-0.032,1.009,0.01,-0.05,0.07,-35.18,26.75,-29.46,0.26,-1.93,-130.21,0.421,-0.005,0.016,-0.907
4016275.000000,-0.006,-0.034,1.011,0.07,0.03,0.01,-35.18,26.75,-29.46,0.25,-1.93,-130.21,0.421,-0.005,0.016,-0.907
4016285.000000,-0.005,-0.035,1.006,0.03,0.09,0.01,-35.18,26.75,-29.46,0.25,-1.93,-130.21,0.421,-0.005,0.016,-0.907
4016295.000000,-0.005,-0.031,1.007,0.01,-0.03,-0.03,-35.00,27.02,-29.63,0.26,-1.93,-130.21,0.421,-0.005,0.016,-0.907
4016305.000000,-0.005,-0.035,1.010,-0.05,-0.01,-0.01,-35.14,26.48,-29.42,0.26,-1.93,-130.21,0.421,-0.005,0.016,-0.907
4016315.000000,-0.005,-0.032,1.010,0.01,0.07,-0.01,-34.60,27.56,-29.71,0.26,-1.93,-130.21,0.421,-0.005,0.016,-0.907
4016325.000000,-0.002,-0.032,1.005,0.01,-0.05,-0.07,-34.68,27.67,-29.63,0.26,-1.93,-130.21,0.421,-0.005,0.016,-0.907
4016335.000000,-0.006,-0.036,1.009,-0.01,0.01,0.05,-34.60,27.71,-29.46,0.25,-1.93,-130.21,0.421,-0.005,0.016,-0.907
4016345.000000,-0.005,-0.032,1.011,-0.07,0.07,-0.01,-34.50,27.29,-29.46,0.25,-1.93,-130.21,0.421,-0.005,0.016,-0.907
4016355.000000,-0.003,-0.036,1.007,-0.03,-0.01,-0.03,-34.60,27.33,-29.96,0.25,-1.93,-130.21,0.421,-0.005,0.016,-0.907
4016365.000000,-0.005,-0.035,1.010,-0.01,0.03,0.01,-34.08,26.60,-29.63,0.25,-1.93,-130.21,0.421,-0.005,0.016,-0.907
4016375.000000,-0.007,-0.034,1.009,0.03,-0.11,0.01,-34.42,26.56,-29.96,0.25,-1.93,-130.21,0.421,-0.005,0.016,-0.907
4016385.000000,-0.002,-0.034,1.006,-0.07,-0.03,0.01,-33.85,26.52,-30.08,0.25,-1.93,-130.21,0.421,-0.005,0.016,-0.907
4016395.000000,-0.006,-0.032,1.011,-0.07,0.14,-0.05,-34.04,26.52,-29.54,0.25,-1.93,-130.21,0.421,-0.005,0.016,-0.907
4016405.000000,-0.005,-0.034,1.009,0.05,-0.05,-0.07,-33.81,26.88,-30.04,0.25,-1.94,-130.21,0.421,-0.005,0.016,-0.907
4016415.000000,-0.003,-0.034,1.007,-0.09,-0.05,-0.01,-34.96,27.52,-29.50,0.25,-1.94,-130.21,0.421,-0.005,0.016,-0.907
4016425.000000,-0.005,-0.032,1.005,0.05,-0.05,0.14,-35.00,27.29,-29.79,0.25,-1.94,-130.21,0.421,-0.005,0.016,-0.907
4016435.000000,-0.006,-0.034,1.009,-0.09,0.22,0.10,-34.92,27.71,-29.67,0.25,-1.94,-130.21,0.421,-0.005,0.016,-0.907
4016445.000000,-0.001,-0.035,1.007,0.03,-0.01,0.05,-35.00,27.21,-29.67,0.25,-1.94,-130.21,0.421,-0.005,0.016,-0.907
4016455.000000,-0.003,-0.036,1.002,0.01,0.01,-0.07,-34.88,27.33,-29.92,0.25,-1.94,-130.21,0.421,-0.005,0.016,-0.907
4016465.000000,-0.002,-0.032,1.010,0.05,0.01,-0.05,-35.14,27.48,-29.54,0.25,-1.94,-130.21,0.421,-0.005,0.016,-0.907
4016475.000000,-0.003,-0.031,1.010,0.11,0.09,-0.07,-35.10,27.25,-29.46,0.25,-1.94,-130.21,0.421,-0.005,0.016,-0.907
4016485.000000,-0.005,-0.034,1.010,-0.01,0.09,-0.01,-35.06,27.02,-29.54,0.25,-1.94,-130.21,0.421,-0.005,0.016,-0.907
4016495.000000,-0.005,-0.031,1.006,-0.05,-0.13,-0.01,-35.14,27.02,-29.54,0.25,-1.94,-130.21,0.421,-0.005,0.016,-0.907
4016505.000000,-0.002,-0.031,1.007,0.09,0.07,-0.03,-35.25,27.10,-29.58,0.25,-1.94,-130.21,0.421,-0.005,0.016,-0.907
4016515.000000,-0.006,-0.035,1.010,0.05,0.01,-0.03,-35.29,26.71,-29.67,0.25,-1.93,-130.21,0.421,-0.005,0.016,-0.907
4016525.000000,-0.003,-0.034,1.002,-0.01,0.01,-0.01,-35.48,26.88,-29.67,0.25,-1.93,-130.21,0.421,-0.005,0.016,-0.907
4016535.000000,-0.002,-0.032,1.009,-0.01,-0.01,-0.01,-35.33,26.38,-29.67,0.25,-1.93,-130.21,0.421,-0.005,0.016,-0.907
4016545.000000,-0.005,-0.034,1.007,-0.01,0.18,-0.07,-35.14,26.52,-29.58,0.25,-1.93,-130.21,0.421,-0.005,0.016,-0.907
4016555.000000,-0.007,-0.034,1.015,0.01,-0.05,0.05,-35.18,26.56,-29.75,0.25,-1.93,-130.21,0.421,-0.005,0.016,-0.907
4016565.000000,-0.005,-0.034,1.006,-0.05,0.07,0.03,-35.52,27.29,-29.63,0.25,-1.93,-130.21,0.421,-0.005,0.016,-0.907
4016575.000000,-0.003,-0.035,1.007,-0.07,-0.03,-0.03,-35.71,27.52,-29.79,0.25,-1.93,-130.21,0.421,-0.005,0.016,-0.907
4016585.000000,-0.005,-0.035,1.011,-0.01,0.05,-0.01,-35.83,27.52,-29.63,0.25,-1.94,-130.21,0.421,-0.005,0.016,-0.907
4016595.000000,-0.003,-0.034,1.013,-0.05,-0.11,0.05,-35.88,27.56,-29.58,0.25,-1.94,-130.21,0.421,-0.005,0.016,-0.907
4016605.000000,-0.005,-0.034,1.006,-0.01,0.03,-0.05,-35.38,27.17,-29.83,0.25,-1.94,-130.21,0.421,-0.005,0.016,-0.907
4016615.000000,-0.006,-0.034,1.007,-0.03,0.05,-0.01,-34.77,27.75,-29.71,0.25,-1.94,-130.21,0.421,-0.005,0.016,-0.907
4016625.000000,-0.006,-0.035,1.010,0.11,0.01,-0.05,-35.52,28.02,-29.42,0.25,-1.94,-130.21,0.421,-0.005,0.016,-0.907
4016635.000000,-0.003,-0.034,1.009,-0.05,0.07,0.03,-34.42,27.93,-29.25,0.25,-1.94,-130.21,0.421,-0.005,0.016,-0.907
4016645.000000,-0.006,-0.035,1.011,-0.01,0.09,0.08,-34.77,27.83,-29.54,0.25,-1.94,-130.21,0.421,-0.005,0.016,-0.907
4016655.000000,-0.006,-0.035,1.010,-0.05,-0.07,-0.03,-35.29,28.02,-29.67,0.25,-1.94,-130.21,0.421,-0.005,0.016,-0.907
4016665.000000,-0.006,-0.035,1.011,0.07,-0.05,0.03,-34.42,27.48,-29.58,0.25,-1.94,-130.21,0.421,-0.005,0.016,-0.907
4016675.000000,-0.006,-0.032,1.007,0.01,0.12,-0.01,-34.27,27.48,-29.75,0.25,-1.94,-130.21,0.421,-0.005,0.016,-0.907
4016685.000000,-0.005,-0.034,1.009,-0.11,0.01,-0.03,-34.27,27.98,-29.54,0.25,-1.94,-130.21,0.421,-0.005,0.016,-0.907
4016695.000000,-0.005,-0.035,1.013,0.01,-0.03,-0.03,-34.04,27.75,-29.46,0.25,-1.94,-130.21,0.421,-0.005,0.016,-0.907
4016705.000000,-0.005,-0.034,1.007,0.01,-0.01,0.05,-34.31,27.89,-29.25,0.25,-1.94,-130.21,0.421,-0.005,0.016,-0.907
4016715.000000,-0.005,-0.034,1.007,0.03,0.07,-0.03,-34.73,27.56,-29.63,0.25,-1.94,-130.21,0.421,-0.005,0.016,-0.907
4016725.000000,-0.003,-0.034,1.014,-0.01,0.03,0.12,-35.10,27.52,-29.75,0.25,-1.94,-130.21,0.421,-0.005,0.016,-0.907
4016735.000000,-0.002,-0.032,1.007,0.09,0.09,0.03,-34.60,27.48,-29.63,0.25,-1.94,-130.21,0.421,-0.005,0.016,-0.907
4016745.000000,-0.002,-0.034,1.009,0.01,0.03,-0.07,-34.92,27.52,-29.71,0.25,-1.94,-130.21,0.421,-0.005,0.016,-0.907
4016755.000000,-0.003,-0.038,1.007,-0.07,0.01,0.01,-34.64,27.48,-29.58,0.25,-1.94,-130.21,0.421,-0.005,0.016,-0.907
4016765.000000,-0.002,-0.034,1.010,-0.07,-0.05,0.03,-35.25,27.10,-29.63,0.25,-1.94,-130.21,0.421,-0.005,0.016,-0.907
4016775.000000,-0.007,-0.035,1.009,-0.01,0.12,0.03,-34.88,27.10,-29.83,0.25,-1.94,-130.21,0.421,-0.005,0.016,-0.907
4016785.000000,-0.005,-0.035,1.010,0.05,0.03,-0.09,-35.18,27.10,-29.79,0.25,-1.94,-130.21,0.421,-0.005,0.016,-0.907
4016795.000000,-0.005,-0.032,1.010,0.07,-0.03,0.09,-34.88,27.25,-29.92,0.25,-1.94,-130.21,0.421,-0.005,0.016,-0.907
4016805.000000,-0.006,-0.035,1.007,0.03,0.05,0.05,-34.73,27.38,-29.75,0.25,-1.94,-130.21,0.421,-0.005,0.016,-0.907
4016815.000000,-0.007,-0.034,1.010,-0.03,-0.13,0.08,-35.38,28.06,-29.54,0.25,-1.94,-130.20,0.421,-0.005,0.016,-0.907
4016825.000000,-0.003,-0.032,1.006,0.01,0.07,0.10,-34.83,27.89,-29.83,0.25,-1.94,-130.20,0.421,-0.005,0.016,-0.907
4016835.000000,-0.003,-0.032,1.007,0.09,0.07,-0.07,-34.96,27.89,-29.75,0.25,-1.94,-130.20,0.421,-0.005,0.016,-0.907
4016845.000000,-0.003,-0.034,1.009,0.01,0.16,0.01,-35.14,27.98,-29.83,0.25,-1.94,-130.20,0.421,-0.005,0.016,-0.907
4016855.000000,-0.003,-0.032,1.009,0.05,0.01,-0.03,-34.96,27.89,-29.54,0.25,-1.94,-130.20,0.421,-0.005,0.016,-0.907
4016865.000000,-0.003,-0.034,1.006,0.01,-0.01,0.01,-35.06,27.10,-29.63,0.25,-1.94,-130.20,0.421,-0.005,0.016,-0.907
4016875.000000,-0.005,-0.034,1.011,-0.03,0.01,-0.07,-35.25,26.88,-29.83,0.25,-1.94,-130.20,0.421,-0.005,0.016,-0.907
4016885.000000,-0.007,-0.038,1.007,-0.07,-0.09,0.01,-35.00,27.02,-29.75,0.25,-1.94,-130.20,0.421,-0.005,0.016,-0.907
4016895.000000,-0.007,-0.035,1.009,-0.01,0.03,0.03,-34.73,27.02,-30.04,0.25,-1.94,-130.20,0.421,-0.005,0.016,-0.907
4016905.000000,-0.009,-0.035,1.009,-0.01,-0.01,-0.01,-35.29,26.79,-29.75,0.25,-1.94,-130.20,0.421,-0.005,0.016,-0.907
4016915.000000,-0.003,-0.032,1.005,-0.03,-0.03,-0.01,-34.18,27.17,-29.67,0.25,-1.94,-130.20,0.421,-0.005,0.016,-0.907
4016925.000000,-0.005,-0.034,1.006,-0.01,-0.05,0.10,-34.23,26.98,-29.83,0.25,-1.94,-130.20,0.421,-0.005,0.016,-0.907
4016935.000000,-0.003,-0.034,1.011,0.07,0.16,0.01,-34.31,26.75,-29.79,0.25,-1.94,-130.20,0.421,-0.005,0.016,-0.907
4016945.000000,-0.005,-0.035,1.013,0.09,0.07,0.01,-34.54,27.10,-29.58,0.25,-1.94,-130.20,0.421,-0.005,0.016,-0.907
4016955.000000,-0.002,-0.034,1.009,-0.01,-0.05,-0.03,-34.31,27.02,-29.63,0.25,-1.94,-130.20,0.421,-0.005,0.016,-0.907
4016965.000000,-0.007,-0.034,1.006,0.07,-0.03,-0.09,-34.68,27.17,-29.63,0.25,-1.94,-130.20,0.421,-0.005,0.016,-0.907
4016975.000000,-0.006,-0.032,1.009,-0.01,-0.05,0.03,-34.60,27.21,-29.33,0.25,-1.94,-130.20,0.421,-0.005,0.016,-0.907
4016985.000000,-0.005,-0.034,1.006,-0.01,-0.01,0.03,-34.64,27.21,-29.50,0.25,-1.94,-130.20,0.421,-0.005,0.016,-0.907
4016995.000000,-0.003,-0.036,1.007,0.09,0.09,-0.05,-34.46,27.02,-29.25,0.25,-1.94,-130.20,0.421,-0.005,0.016,-0.907
4017005.000000,-0.001,-0.032,1.009,-0.05,-0.03,0.08,-34.42,27.33,-28.92,0.25,-1.93,-130.20,0.421,-0.005,0.016,-0.907
4017015.000000,-0.005,-0.034,1.010,-0.07,0.12,0.01,-34.92,27.48,-29.83,0.25,-1.94,-130.20,0.421,-0.005,0.016,-0.907
4017025.000000,-0.002,-0.034,1.009,-0.01,0.09,-0.01,-34.64,27.02,-30.04,0.25,-1.94,-130.20,0.421,-0.005,0.016,-0.907
4017035.000000,-0.003,-0.034,1.003,-0.05,-0.01,-0.03,-35.33,27.52,-29.67,0.25,-1.94,-130.20,0.421,-0.005,0.016,-0.907
4017045.000000,-0.003,-0.032,1.009,-0.05,0.07,-0.03,-34.92,27.33,-29.96,0.25,-1.94,-130.20,0.421,-0.005,0.016,-0.907
4017055.000000,-0.005,-0.035,1.011,-0.07,0.12,-0.07,-34.60,27.21,-29.83,0.25,-1.94,-130.20,0.421,-0.005,0.016,-0.907
4017065.000000,-0.005,-0.035,1.013,0.03,-0.01,-0.03,-34.23,26.33,-29.54,0.25,-1.94,-130.21,0.421,-0.005,0.016,-0.907
4017075.000000,-0.005,-0.036,1.009,0.03,0.03,0.03,-34.00,26.56,-29.75,0.25,-1.94,-130.21,0.421,-0.005,0.016,-0.907
4017085.000000,-0.005,-0.034,1.011,0.03,0.01,0.03,-33.85,26.48,-30.13,0.25,-1.94,-130.21,0.421,-0.005,0.016,-0.907
4017095.000000,-0.007,-0.035,1.011,0.03,0.01,0.01,-33.81,26.48,-30.00,0.25,-1.94,-130.21,0.421,-0.005,0.016,-0.907
4017105.000000,-0.006,-0.036,1.007,-0.03,0.01,-0.07,-33.73,26.52,-29.96,0.25,-1.94,-130.20,0.421,-0.005,0.016,-0.907
4017115.000000,-0.003,-0.035,1.005,0.01,-0.01,0.05,-34.96,27.60,-29.46,0.25,-1.94,-130.21,0.421,-0.005,0.016,-0.907
4017125.000000,-0.003,-0.032,1.007,-0.03,0.05,-0.01,-34.96,27.25,-29.67,0.25,-1.94,-130.20,0.421,-0.005,0.016,-0.907
4017135.000000,-0.005,-0.032,1.009,0.09,0.03,0.03,-35.06,27.33,-29.63,0.25,-1.94,-130.20,0.421,-0.005,0.016,-0.907
4017145.000000,-0.007,-0.034,1.010,-0.03,-0.01,-0.01,-34.83,27.56,-29.79,0.25,-1.94,-130.20,0.421,-0.005,0.016,-0.907
4017155.000000,-0.002,-0.035,1.007,-0.05,0.01,-0.03,-35.06,27.25,-29.50,0.25,-1.94,-130.20,0.421,-0.005,0.016,-0.907
4017165.000000,-0.003,-0.036,1.007,0.11,0.03,0.01,-33.81,26.52,-29.58,0.25,-1.94,-130.20,0.421,-0.005,0.016,-0.907
4017175.000000,-0.006,-0.034,1.006,-0.03,-0.01,0.03,-33.68,27.25,-29.50,0.25,-1.94,-130.20,0.421,-0.005,0.016,-0.907
4017185.000000,-0.002,-0.031,1.011,-0.05,0.09,0.10,-33.85,27.06,-29.46,0.25,-1.94,-130.20,0.421,-0.005,0.016,-0.907
4017195.000000,-0.003,-0.032,1.010,0.07,-0.05,0.01,-33.85,27.43,-29.38,0.25,-1.94,-130.20,0.421,-0.005,0.016,-0.907
4017205.000000,-0.006,-0.032,1.007,-0.03,0.03,-0.03,-33.63,26.98,-29.46,0.25,-1.93,-130.20,0.421,-0.005,0.016,-0.907
4017215.000000,-0.006,-0.035,1.006,0.01,0.03,-0.03,-34.04,27.10,-29.46,0.25,-1.93,-130.20,0.421,-0.005,0.016,-0.907
4017225.000000,-0.005,-0.035,1.009,-0.01,-0.01,-0.03,-34.23,27.10,-29.83,0.25,-1.94,-130.20,0.421,-0.005,0.016,-0.907
4017235.000000,-0.005,-0.035,1.006,0.01,0.03,-0.05,-34.04,27.33,-30.13,0.25,-1.94,-130.20,0.421,-0.005,0.016,-0.907
4017245.000000,-0.002,-0.034,1.013,-0.01,0.03,-0.07,-34.23,27.56,-29.75,0.25,-1.94,-130.21,0.421,-0.005,0.016,-0.907
4017255.000000,-0.002,-0.035,1.010,-0.01,0.03,0.01,-33.85,27.29,-29.71,0.25,-1.94,-130.21,0.421,-0.005,0.016,-0.907
4017265.000000,-0.003,-0.032,1.009,0.03,0.14,-0.13,-34.18,27.29,-29.33,0.25,-1.94,-130.21,0.421,-0.005,0.016,-0.907
4017275.000000,-0.003,-0.035,1.005,-0.05,0.14,0.12,-34.38,27.25,-29.13,0.25,-1.94,-130.21,0.421,-0.005,0.016,-0.907
4017285.000000,-0.006,-0.035,1.009,0.07,-0.01,-0.07,-34.88,27.38,-29.29,0.25,-1.94,-130.21,0.421,-0.005,0.016,-0.907
4017295.000000,-0.005,-0.035,1.005,-0.07,0.09,0.06,-34.46,27.10,-29.50,0.25,-1.94,-130.21,0.421,-0.005,0.016,-0.907
4017305.000000,-0.007,-0.034,1.005,-0.03,-0.03,0.01,-34.14,27.02,-29.71,0.25,-1.94,-130.21,0.421,-0.005,0.016,-0.907
4017315.000000,-0.007,-0.032,1.011,-0.01,0.09,-0.01,-34.23,26.38,-29.42,0.25,-1.94,-130.21,0.421,-0.005,0.016,-0.907
4017325.000000,-0.003,-0.032,1.007,0.01,-0.05,0.01,-34.00,26.48,-29.92,0.25,-1.94,-130.21,0.421,-0.005,0.016,-0.907
4017335.000000,-0.003,-0.034,1.007,-0.05,-0.01,-0.01,-34.04,26.52,-29.58,0.25,-1.94,-130.21,0.421,-0.005,0.016,-0.907
4017345.000000,-0.005,-0.032,1.010,0.07,0.01,-0.07,-34.27,26.75,-29.71,0.25,-1.94,-130.21,0.421,-0.005,0.016,-0.907
4017355.000000,-0.006,-0.032,1.013,0.01,0.05,-0.01,-34.42,26.83,-29.63,0.25,-1.94,-130.21,0.421,-0.005,0.016,-0.907
4017365.000000,-0.005,-0.032,1.006,-0.01,0.03,0.01,-34.04,26.64,-29.67,0.25,-1.94,-130.21,0.421,-0.005,0.016,-0.907
4017375.000000,-0.005,-0.036,1.006,0.01,0.07,0.03,-34.14,26.88,-29.17,0.25,-1.94,-130.21,0.421,-0.005,0.016,-0.907
4017385.000000,-0.006,-0.036,1.010,-0.01,0.12,0.03,-34.18,26.93,-29.00,0.25,-1.94,-130.21,0.421,-0.005,0.016,-0.907
4017395.000000,-0.005,-0.034,1.009,0.05,-0.11,-0.01,-34.14,26.88,-29.33,0.25,-1.94,-130.21,0.421,-0.005,0.016,-0.907
4017405.000000,-0.002,-0.031,1.010,0.05,-0.09,0.01,-33.96,26.98,-29.50,0.25,-1.94,-130.21,0.421,-0.005,0.016,-0.907
4017415.000000,-0.003,-0.031,1.006,0.07,0.09,0.05,-33.46,27.67,-29.79,0.25,-1.94,-130.21,0.421,-0.005,0.016,-0.907
4017425.000000,-0.007,-0.032,1.009,-0.03,0.01,-0.01,-33.81,27.21,-29.67,0.25,-1.93,-130.21,0.421,-0.005,0.016,-0.907
4017435.000000,-0.003,-0.031,1.009,0.01,0.18,0.03,-33.27,27.56,-29.75,0.25,-1.93,-130.21,0.421,-0.005,0.016,-0.907
4017445.000000,-0.006,-0.032,1.006,-0.01,-0.11,-0.05,-32.93,27.25,-29.79,0.25,-1.93,-130.21,0.421,-0.005,0.016,-0.907
4017455.000000,-0.006,-0.035,1.007,0.13,0.01,-0.07,-33.35,27.48,-29.71,0.25,-1.93,-130.21,0.421,-0.005,0.016,-0.907
4017465.000000,-0.002,-0.032,1.005,0.01,0.16,0.03,-35.56,27.43,-29.67,0.25,-1.93,-130.21,0.421,-0.005,0.016,-0.907
4017475.000000,-0.005,-0.034,1.013,-0.05,-0.09,0.03,-35.56,27.06,-29.33,0.25,-1.93,-130.21,0.421,-0.005,0.016,-0.907
4017485.000000,-0.005,-0.035,1.007,0.03,0.05,-0.03,-35.98,26.88,-29.63,0.25,-1.93,-130.21,0.421,-0.005,0.016,-0.907
4017495.000000,-0.006,-0.034,1.007,0.03,-0.01,-0.01,-35.38,26.98,-29.71,0.25,-1.93,-130.21,0.421,-0.005,0.016,-0.907
4017505.000000,-0.006,-0.035,1.010,-0.01,-0.01,-0.01,-35.33,27.06,-29.46,0.25,-1.93,-130.21,0.421,-0.005,0.016,-0.907
4017515.000000,-0.003,-0.034,1.006,0.01,0.12,0.05,-34.08,27.10,-29.58,0.25,-1.93,-130.21,0.421,-0.005,0.016,-0.907
4017525.000000,-0.006,-0.034,1.009,0.07,-0.09,0.01,-34.14,27.21,-29.58,0.25,-1.93,-130.21,0.421,-0.005,0.016,-0.907
4017535.000000,-0.006,-0.034,1.011,-0.05,0.05,-0.07,-34.27,27.06,-29.42,0.25,-1.93,-130.21,0.421,-0.005,0.016,-0.907
4017545.000000,-0.005,-0.034,1.007,-0.09,-0.01,-0.05,-34.38,27.02,-29.50,0.25,-1.93,-130.21,0.421,-0.005,0.016,-0.907
4017555.000000,-0.003,-0.035,1.009,0.09,-0.03,0.03,-34.42,27.06,-29.58,0.25,-1.93,-130.21,0.421,-0.005,0.016,-0.907
4017565.000000,-0.003,-0.034,1.009,-0.03,-0.01,-0.01,-34.31,26.71,-29.63,0.25,-1.93,-130.21,0.421,-0.005,0.016,-0.907
4017575.000000,-0.007,-0.034,1.009,-0.03,-0.01,-0.07,-34.27,27.06,-29.92,0.25,-1.93,-130.21,0.421,-0.005,0.016,-0.907
4017585.000000,-0.005,-0.035,1.013,-0.05,0.05,0.01,-34.18,27.25,-29.63,0.25,-1.93,-130.21,0.421,-0.005,0.016,-0.907
4017595.000000,-0.003,-0.036,1.011,0.05,0.12,0.03,-34.60,27.10,-29.67,0.25,-1.93,-130.21,0.421,-0.005,0.016,-0.907
4017605.000000,-0.005,-0.034,1.006,-0.03,-0.07,0.01,-33.85,27.38,-29.75,0.25,-1.93,-130.21,0.421,-0.005,0.016,-0.907
4017615.000000,-0.006,-0.031,1.010,0.13,-0.03,-0.01,-34.18,27.06,-29.67,0.25,-1.93,-130.21,0.421,-0.005,0.016,-0.907
4017625.000000,-0.002,-0.034,1.010,0.05,-0.03,-0.03,-34.08,26.88,-29.54,0.25,-1.93,-130.21,0.421,-0.005,0.016,-0.907
4017635.000000,-0.005,-0.031,1.011,0.01,-0.05,0.03,-34.18,27.25,-29.29,0.25,-1.93,-130.21,0.421,-0.005,0.016,-0.907
4017645.000000,-0.006,-0.035,1.007,-0.11,0.01,-0.01,-33.96,27.21,-29.58,0.25,-1.93,-130.21,0.421,-0.005,0.016,-0.907
4017655.000000,-0.002,-0.034,1.010,0.03,-0.03,-0.03,-33.81,27.02,-29.13,0.25,-1.93,-130.21,0.421,-0.005,0.016,-0.907
4017665.000000,-0.005,-0.034,1.007,0.05,0.01,-0.07,-34.04,26.88,-29.58,0.25,-1.93,-130.21,0.421,-0.005,0.016,-0.907
4017675.000000,-0.005,-0.034,1.007,0.05,0.03,-0.01,-34.00,26.48,-29.54,0.24,-1.93,-130.21,0.421,-0.005,0.016,-0.907
4017685.000000,-0.003,-0.035,1.010,0.03,0.05,0.01,-33.81,26.79,-29.21,0.24,-1.93,-130.21,0.421,-0.005,0.016,-0.907
4017695.000000,-0.005,-0.034,1.009,0.01,0.14,-0.03,-33.92,26.93,-29.54,0.24,-1.93,-130.21,0.421,-0.005,0.016,-0.907
4017705.000000,-0.003,-0.035,1.009,-0.05,0.09,-0.01,-34.50,26.64,-29.54,0.25,-1.93,-130.21,0.421,-0.005,0.016,-0.907
4017715.000000,-0.005,-0.036,1.009,0.03,-0.01,0.07,-34.27,26.60,-29.54,0.25,-1.93,-130.21,0.421,-0.005,0.016,-0.907
4017725.000000,-0.005,-0.030,1.010,0.01,-0.01,-0.05,-34.60,26.60,-29.83,0.25,-1.93,-130.21,0.421,-0.005,0.016,-0.907
4017735.000000,-0.005,-0.035,1.009,-0.03,0.03,-0.01,-34.83,26.79,-29.63,0.25,-1.93,-130.21,0.421,-0.005,0.016,-0.907
4017745.000000,-0.002,-0.034,1.005,-0.07,0.14,-0.05,-34.60,27.21,-29.42,0.25,-1.93,-130.21,0.421,-0.005,0.016,-0.907
4017755.000000,-0.007,-0.034,1.009,-0.07,-0.05,0.01,-34.00,26.83,-29.50,0.25,-1.93,-130.21,0.421,-0.005,0.016,-0.907
4017765.000000,-0.003,-0.035,1.009,0.05,0.09,0.03,-34.54,26.83,-29.63,0.25,-1.93,-130.21,0.421,-0.005,0.016,-0.907
4017775.000000,-0.003,-0.035,1.010,0.01,-0.07,0.01,-34.31,27.02,-29.83,0.25,-1.93,-130.21,0.421,-0.005,0.016,-0.907
4017785.000000,-0.006,-0.032,1.009,-0.03,0.03,0.06,-34.77,26.64,-29.54,0.25,-1.93,-130.21,0.421,-0.005,0.016,-0.907
4017795.000000,-0.005,-0.034,1.006,0.05,-0.09,-0.03,-34.64,26.75,-29.79,0.25,-1.93,-130.21,0.421,-0.005,0.016,-0.907
4017805.000000,-0.005,-0.034,1.009,-0.01,-0.03,-0.01,-34.54,26.98,-29.75,0.25,-1.93,-130.21,0.421,-0.005,0.016,-0.907
4017815.000000,-0.003,-0.035,1.005,-0.01,0.12,-0.01,-33.39,27.10,-29.63,0.24,-1.93,-130.21,0.421,-0.005,0.016,-0.907
4017825.000000,-0.003,-0.035,1.007,0.05,0.01,0.03,-34.04,26.64,-29.21,0.25,-1.93,-130.21,0.421,-0.005,0.016,-0.907
4017835.000000,-0.006,-0.038,1.010,-0.07,-0.03,0.10,-33.73,27.33,-29.42,0.25,-1.93,-130.21,0.421,-0.005,0.016,-0.907
4017845.000000,-0.007,-0.032,1.010,0.03,-0.03,0.01,-33.58,26.71,-29.67,0.24,-1.93,-130.21,0.421,-0.005,0.016,-0.907
4017855.000000,-0.003,-0.034,1.009,0.05,0.09,-0.05,-33.54,26.83,-29.50,0.24,-1.93,-130.21,0.421,-0.005,0.016,-0.907
4017865.000000,-0.005,-0.031,1.007,-0.01,0.01,-0.01,-34.00,26.88,-29.58,0.25,-1.93,-130.21,0.421,-0.005,0.016,-0.907
4017875.000000,-0.003,-0.034,1.009,0.01,0.14,0.01,-34.27,26.83,-29.54,0.24,-1.93,-130.21,0.421,-0.005,0.016,-0.907
4017885.000000,-0.005,-0.036,1.006,-0.07,0.03,-0.05,-33.85,26.75,-29.58,0.25,-1.93,-130.21,0.421,-0.005,0.016,-0.907
4017895.000000,-0.006,-0.032,1.006,0.03,0.09,0.01,-33.77,27.06,-29.38,0.25,-1.93,-130.21,0.421,-0.005,0.016,-0.907
4017905.000000,-0.005,-0.032,1.003,-0.03,0.01,-0.03,-33.96,26.60,-29.50,0.25,-1.93,-130.21,0.421,-0.005,0.016,-0.907
4017915.000000,-0.005,-0.034,1.011,0.01,0.07,-0.01,-33.96,26.60,-29.50,0.25,-1.93,-130.21,0.421,-0.005,0.016,-0.907
4017925.000000,-0.006,-0.034,1.011,-0.03,0.03,-0.05,-33.50,26.93,-29.54,0.25,-1.93,-130.21,0.421,-0.005,0.016,-0.907
4017935.000000,-0.005,-0.034,1.009,-0.01,0.20,0.03,-33.35,27.06,-29.50,0.25,-1.93,-130.21,0.421,-0.005,0.016,-0.907
4017945.000000,-0.006,-0.035,1.011,-0.01,0.01,-0.03,-33.50,26.79,-29.58,0.25,-1.93,-130.21,0.421,-0.005,0.016,-0.907
4017955.000000,-0.006,-0.035,1.007,-0.01,0.03,0.03,-33.46,26.60,-29.58,0.25,-1.93,-130.21,0.421,-0.005,0.016,-0.907
4017965.000000,-0.005,-0.034,1.009,0.01,0.05,-0.03,-33.46,26.60,-29.58,0.25,-1.93,-130.21,0.421,-0.005,0.016,-0.907
4017975.000000,-0.002,-0.034,1.005,-0.03,0.03,0.03,-34.04,27.02,-29.46,0.25,-1.93,-130.21,0.421,-0.005,0.016,-0.907
4017985.000000,-0.003,-0.035,1.007,0.03,0.03,0.03,-34.00,26.93,-29.63,0.25,-1.93,-130.21,0.421,-0.005,0.016,-0.907
4017995.000000,-0.003,-0.035,1.009,-0.07,-0.05,-0.03,-34.08,27.43,-29.33,0.25,-1.93,-130.21,0.421,-0.005,0.016,-0.907
4018005.000000,-0.003,-0.034,1.009,0.07,-0.05,-0.03,-34.23,27.25,-29.38,0.25,-1.93,-130.21,0.421,-0.005,0.016,-0.907
4018015.000000,-0.005,-0.034,1.013,-0.03,0.05,-0.03,-34.23,27.25,-29.38,0.25,-1.93,-130.21,0.421,-0.005,0.016,-0.907
4018025.000000,-0.006,-0.034,1.007,-0.01,0.09,-0.01,-34.00,27.10,-29.58,0.25,-1.93,-130.21,0.421,-0.005,0.016,-0.907
4018035.000000,-0.002,-0.034,1.006,0.01,0.03,-0.01,-34.04,27.38,-29.33,0.25,-1.93,-130.21,0.421,-0.005,0.016,-0.907
4018045.000000,-0.005,-0.034,1.006,0.01,-0.01,0.03,-34.31,27.25,-29.75,0.25,-1.93,-130.21,0.421,-0.005,0.016,-0.907
4018055.000000,-0.003,-0.035,1.007,0.03,0.09,-0.03,-33.73,27.33,-30.08,0.25,-1.93,-130.21,0.421,-0.005,0.016,-0.907
4018065.000000,-0.005,-0.035,1.007,0.03,-0.07,-0.03,-33.73,27.33,-30.08,0.25,-1.93,-130.21,0.421,-0.005,0.016,-0.907
4018075.000000,-0.006,-0.036,1.014,-0.03,0.01,0.03,-34.31,26.93,-29.42,0.25,-1.93,-130.21,0.421,-0.005,0.016,-0.907
4018085.000000,-0.007,-0.036,1.010,0.01,0.03,-0.01,-34.42,27.29,-29.50,0.25,-1.93,-130.21,0.421,-0.005,0.016,-0.907
4018095.000000,-0.007,-0.031,1.013,-0.07,0.14,-0.01,-34.14,27.21,-29.58,0.25,-1.93,-130.21,0.421,-0.005,0.016,-0.907
4018105.000000,-0.005,-0.034,1.009,-0.01,-0.07,-0.07,-34.23,26.93,-29.42,0.25,-1.93,-130.21,0.421,-0.005,0.016,-0.907
4018115.000000,-0.003,-0.035,1.010,0.05,-0.01,-0.03,-34.23,26.93,-29.42,0.25,-1.93,-130.21,0.421,-0.005,0.016,-0.907
4018125.000000,-0.005,-0.034,1.010,0.03,0.03,-0.01,-33.46,26.79,-29.75,0.25,-1.93,-130.21,0.421,-0.005,0.016,-0.907
4018135.000000,-0.005,-0.032,1.007,0.01,0.01,0.05,-33.13,27.02,-29.33,0.25,-1.93,-130.21,0.421,-0.005,0.016,-0.907
4018145.000000,-0.007,-0.034,1.010,0.01,-0.01,-0.05,-33.81,26.71,-29.67,0.25,-1.93,-130.21,0.421,-0.005,0.016,-0.907
4018155.000000,-0.003,-0.034,1.010,0.07,-0.01,0.01,-33.35,27.06,-29.63,0.25,-1.93,-130.21,0.421,-0.005,0.016,-0.907
4018165.000000,-0.005,-0.034,1.007,0.03,-0.03,0.01,-33.35,27.06,-29.63,0.25,-1.93,-130.21,0.421,-0.005,0.016,-0.907
4018175.000000,-0.005,-0.034,1.007,-0.01,-0.01,-0.01,-33.85,26.98,-29.58,0.25,-1.93,-130.21,0.421,-0.005,0.016,-0.907
4018185.000000,-0.003,-0.031,1.007,-0.01,-0.15,-0.01,-34.04,26.64,-29.46,0.25,-1.93,-130.21,0.421,-0.005,0.016,-0.907
4018195.000000,-0.006,-0.031,1.010,0.01,0.12,-0.05,-34.14,26.71,-29.58,0.24,-1.93,-130.21,0.421,-0.005,0.016,-0.907
4018205.000000,-0.005,-0.034,1.003,-0.01,-0.03,-0.01,-34.00,26.79,-29.79,0.25,-1.93,-130.21,0.421,-0.005,0.016,-0.907
4018215.000000,-0.002,-0.034,1.011,0.03,0.01,0.01,-34.00,26.79,-29.79,0.25,-1.93,-130.21,0.421,-0.005,0.016,-0.907
4018225.000000,-0.002,-0.035,1.009,-0.01,-0.03,0.10,-35.18,27.52,-29.50,0.25,-1.93,-130.21,0.421,-0.005,0.016,-0.907
4018235.000000,-0.005,-0.035,1.005,0.01,-0.07,0.05,-35.10,27.25,-29.42,0.24,-1.93,-130.21,0.421,-0.005,0.016,-0.907
4018245.000000,-0.005,-0.032,1.007,-0.01,0.20,0.03,-35.38,27.21,-29.63,0.24,-1.93,-130.21,0.421,-0.005,0.016,-0.907
4018255.000000,-0.009,-0.034,1.010,0.07,0.16,-0.01,-34.64,27.52,-29.42,0.25,-1.93,-130.21,0.421,-0.005,0.016,-0.907
4018265.000000,-0.005,-0.036,1.014,0.11,0.11,0.07,-34.64,27.52,-29.42,0.25,-1.93,-130.21,0.421,-0.005,0.016,-0.907
4018275.000000,-0.003,-0.036,1.006,-0.01,-0.03,-0.05,-35.14,27.02,-29.50,0.25,-1.93,-130.21,0.421,-0.005,0.016,-0.907
4018286.000000,-0.003,-0.032,1.010,-0.11,-0.03,-0.01,-35.14,27.02,-29.50,0.25,-1.93,-130.21,0.421,-0.005,0.016,-0.907
4018296.000000,-0.003,-0.035,1.011,-0.05,0.07,0.03,-35.14,27.02,-29.50,0.25,-1.93,-130.21,0.421,-0.005,0.016,-0.907
4018306.000000,-0.007,-0.035,1.014,0.09,0.07,-0.03,-35.14,27.02,-29.50,0.25,-1.93,-130.21,0.421,-0.005,0.016,-0.907
4018316.000000,-0.005,-0.035,1.006,-0.07,-0.01,-0.01,-35.14,27.02,-29.50,0.25,-1.93,-130.21,0.421,-0.005,0.016,-0.907
4018326.000000,-0.003,-0.035,1.007,-0.01,-0.03,-0.03,-34.88,26.93,-29.38,0.25,-1.93,-130.21,0.421,-0.005,0.016,-0.907
4018336.000000,-0.006,-0.036,1.009,-0.01,0.07,0.01,-35.00,26.79,-29.25,0.25,-1.93,-130.21,0.421,-0.005,0.016,-0.907
4018346.000000,-0.005,-0.034,1.011,-0.01,0.14,-0.03,-34.50,26.88,-29.50,0.25,-1.93,-130.21,0.421,-0.005,0.016,-0.907
4018355.000000,-0.002,-0.031,1.010,-0.05,0.03,-0.03,-34.54,26.98,-29.25,0.25,-1.93,-130.21,0.421,-0.005,0.016,-0.907
4018365.000000,-0.002,-0.034,1.007,-0.01,0.03,-0.01,-35.06,27.10,-29.38,0.25,-1.93,-130.21,0.421,-0.005,0.016,-0.907
4018375.000000,-0.005,-0.035,1.009,0.03,0.07,0.01,-35.14,27.75,-29.58,0.25,-1.93,-130.21,0.421,-0.005,0.016,-0.907
4018385.000000,-0.005,-0.035,1.006,0.01,0.01,0.03,-34.88,27.56,-29.63,0.25,-1.93,-130.21,0.421,-0.005,0.016,-0.907
4018395.000000,-0.005,-0.034,1.011,0.01,0.12,0.05,-35.29,28.02,-29.42,0.25,-1.93,-130.21,0.421,-0.005,0.016,-0.907
4018405.000000,-0.002,-0.034,1.010,-0.05,0.14,0.01,-35.14,27.48,-29.42,0.25,-1.93,-130.21,0.421,-0.005,0.016,-0.907
4018415.000000,-0.003,-0.036,1.007,0.01,-0.05,-0.03,-35.29,27.52,-29.54,0.25,-1.93,-130.21,0.421,-0.005,0.016,-0.907
4018425.000000,-0.006,-0.031,1.006,0.05,0.01,-0.07,-33.31,27.48,-29.50,0.25,-1.93,-130.21,0.421,-0.005,0.016,-0.907
4018435.000000,-0.007,-0.034,1.010,0.01,0.07,0.08,-33.50,27.56,-29.50,0.25,-1.93,-130.21,0.421,-0.005,0.016,-0.907
4018445.000000,-0.007,-0.032,1.006,0.03,0.03,0.01,-33.23,27.60,-29.79,0.25,-1.93,-130.21,0.421,-0.005,0.016,-0.907
4018456.000000,-0.003,-0.034,1.010,0.07,-0.05,0.09,-33.27,27.56,-29.71,0.25,-1.93,-130.21,0.421,-0.005,0.016,-0.907
4018466.000000,-0.003,-0.034,1.005,-0.09,0.16,-0.01,-33.58,27.56,-29.63,0.25,-1.93,-130.21,0.421,-0.005,0.016,-0.907
4018476.000000,-0.009,-0.034,1.007,0.01,0.09,-0.05,-34.68,27.06,-29.42,0.25,-1.93,-130.21,0.421,-0.005,0.016,-0.907
4018486.000000,-0.003,-0.031,1.011,-0.05,0.01,-0.01,-34.77,26.83,-29.25,0.25,-1.93,-130.21,0.421,-0.005,0.016,-0.907
4018496.000000,-0.005,-0.036,1.005,0.03,0.12,0.01,-34.77,26.79,-29.67,0.25,-1.93,-130.21,0.421,-0.005,0.016,-0.907
4018506.000000,-0.005,-0.036,1.007,-0.05,0.03,0.08,-34.88,26.88,-29.67,0.25,-1.93,-130.21,0.421,-0.005,0.016,-0.907
4018516.000000,-0.007,-0.036,1.009,0.05,0.01,-0.09,-34.64,26.79,-29.50,0.25,-1.93,-130.21,0.421,-0.005,0.016,-0.907
4018526.000000,-0.003,-0.034,1.010,0.15,-0.01,-0.01,-34.27,27.10,-29.42,0.25,-1.93,-130.21,0.421,-0.005,0.016,-0.907
4018536.000000,-0.003,-0.034,1.007,-0.07,0.05,-0.01,-34.77,27.48,-29.46,0.25,-1.93,-130.21,0.421,-0.005,0.016,-0.907
4018546.000000,-0.005,-0.034,1.006,-0.01,0.01,-0.05,-34.77,27.33,-29.50,0.25,-1.93,-130.21,0.421,-0.005,0.016,-0.907
4018556.000000,-0.007,-0.034,1.007,0.01,0.07,0.01,-34.60,27.60,-29.46,0.25,-1.93,-130.21,0.421,-0.005,0.016,-0.907
4018566.000000,-0.003,-0.032,1.007,0.05,0.01,-0.03,-34.23,27.29,-29.08,0.25,-1.93,-130.21,0.421,-0.005,0.016,-0.907
4018576.000000,-0.003,-0.031,1.011,0.01,0.07,0.05,-34.83,27.89,-29.46,0.25,-1.93,-130.21,0.421,-0.005,0.016,-0.907
4018586.000000,-0.006,-0.035,1.010,-0.03,0.05,-0.03,-34.88,27.71,-29.33,0.25,-1.93,-130.21,0.421,-0.005,0.016,-0.907
4018596.000000,-0.005,-0.034,1.009,-0.05,-0.01,-0.09,-34.96,27.79,-29.63,0.25,-1.93,-130.21,0.421,-0.005,0.016,-0.907
4018606.000000,-0.003,-0.034,1.006,0.09,0.01,-0.01,-35.00,27.71,-29.33,0.25,-1.93,-130.21,0.421,-0.005,0.016,-0.907
4018616.000000,-0.003,-0.034,1.011,-0.03,0.07,-0.05,-34.73,27.67,-29.46,0.25,-1.93,-130.21,0.421,-0.005,0.016,-0.907
4018626.000000,-0.006,-0.034,1.009,0.05,0.05,0.01,-34.50,26.10,-29.54,0.25,-1.93,-130.21,0.421,-0.005,0.016,-0.907
4018636.000000,-0.005,-0.032,1.005,-0.05,0.09,-0.05,-34.88,26.56,-29.75,0.25,-1.93,-130.21,0.421,-0.005,0.016,-0.907
4018646.000000,-0.006,-0.036,1.005,-0.01,-0.01,0.03,-34.60,26.29,-29.79,0.25,-1.93,-130.21,0.421,-0.005,0.016,-0.907
4018656.000000,-0.007,-0.035,1.010,-0.07,-0.03,0.01,-35.00,26.14,-29.71,0.25,-1.93,-130.21,0.421,-0.005,0.016,-0.907
4018666.000000,-0.005,-0.036,1.010,0.05,0.03,-0.05,-34.88,26.06,-29.83,0.25,-1.93,-130.21,0.421,-0.005,0.016,-0.907
4018676.000000,-0.005,-0.032,1.009,-0.01,0.12,0.08,-35.10,26.98,-29.29,0.25,-1.93,-130.21,0.421,-0.005,0.016,-0.907
4018686.000000,-0.006,-0.034,1.009,0.01,0.07,-0.05,-34.88,26.98,-29.50,0.25,-1.93,-130.21,0.421,-0.005,0.016,-0.907
4018696.000000,-0.005,-0.035,1.006,0.01,-0.01,0.01,-35.10,27.02,-29.38,0.25,-1.93,-130.21,0.421,-0.005,0.016,-0.907
4018706.000000,-0.005,-0.035,1.011,0.01,0.01,-0.03,-34.96,26.88,-29.63,0.25,-1.93,-130.21,0.421,-0.005,0.016,-0.907
4018716.000000,-0.002,-0.034,1.007,-0.01,0.05,-0.09,-35.33,27.17,-29.33,0.25,-1.93,-130.21,0.421,-0.005,0.016,-0.907
4018726.000000,-0.006,-0.038,1.010,0.01,-0.09,-0.05,-34.96,26.98,-29.50,0.25,-1.93,-130.21,0.421,-0.005,0.016,-0.907
4018736.000000,-0.005,-0.034,1.009,-0.09,0.01,-0.03,-35.06,26.93,-29.71,0.25,-1.93,-130.21,0.421,-0.005,0.016,-0.907
4018746.000000,-0.003,-0.034,1.007,-0.01,0.05,-0.07,-34.68,26.93,-29.17,0.25,-1.93,-130.21,0.421,-0.005,0.016,-0.907
4018756.000000,-0.003,-0.032,1.006,0.05,0.03,0.03,-34.96,27.06,-29.46,0.25,-1.93,-130.22,0.421,-0.005,0.016,-0.907
4018766.000000,-0.003,-0.032,1.009,0.07,-0.07,0.09,-34.96,27.33,-29.75,0.25,-1.93,-130.22,0.421,-0.005,0.016,-0.907
4018776.000000,-0.006,-0.036,1.011,-0.03,0.01,-0.09,-34.60,26.38,-29.38,0.25,-1.93,-130.21,0.421,-0.005,0.016,-0.907
4018786.000000,-0.006,-0.035,1.009,0.09,0.05,0.05,-34.60,26.18,-29.33,0.25,-1.93,-130.22,0.421,-0.005,0.016,-0.907
4018796.000000,-0.005,-0.035,1.009,-0.01,0.09,0.05,-34.50,25.83,-29.33,0.25,-1.93,-130.21,0.421,-0.005,0.016,-0.907
4018806.000000,-0.002,-0.032,1.006,-0.05,0.05,0.01,-34.68,26.29,-29.58,0.25,-1.93,-130.21,0.421,-0.005,0.016,-0.907
4018816.000000,-0.007,-0.034,1.007,0.09,-0.03,0.01,-34.73,26.18,-29.25,0.25,-1.93,-130.21,0.421,-0.005,0.016,-0.907
4018826.000000,-0.002,-0.034,1.005,-0.01,-0.05,0.05,-33.46,26.79,-29.50,0.25,-1.93,-130.21,0.421,-0.005,0.016,-0.907
4018836.000000,-0.007,-0.035,1.006,-0.05,0.09,0.03,-33.17,26.60,-29.46,0.25,-1.93,-130.21,0.421,-0.005,0.016,-0.907
4018846.000000,-0.003,-0.034,1.009,-0.01,-0.09,0.10,-33.27,26.88,-29.38,0.25,-1.93,-130.21,0.421,-0.005,0.016,-0.907
4018856.000000,-0.007,-0.035,1.006,-0.07,0.09,-0.03,-33.00,26.33,-29.50,0.25,-1.93,-130.21,0.421,-0.005,0.016,-0.907
4018866.000000,-0.005,-0.034,1.010,-0.05,0.01,0.01,-33.23,26.48,-29.83,0.25,-1.93,-130.21,0.421,-0.005,0.016,-0.907
4018876.000000,-0.006,-0.036,1.009,-0.03,0.03,0.06,-34.31,26.93,-29.46,0.25,-1.93,-130.21,0.421,-0.005,0.016,-0.907
4018886.000000,-0.005,-0.034,1.006,0.09,-0.03,0.01,-34.00,27.25,-29.08,0.25,-1.93,-130.21,0.421,-0.005,0.016,-0.907
4018896.000000,-0.005,-0.034,1.006,0.01,0.07,-0.03,-34.31,27.17,-29.33,0.25,-1.93,-130.21,0.421,-0.005,0.016,-0.907
4018906.000000,-0.005,-0.032,1.013,-0.01,0.12,-0.03,-34.38,27.17,-29.33,0.25,-1.93,-130.21,0.421,-0.005,0.016,-0.907
4018916.000000,-0.005,-0.034,1.005,0.03,0.07,-0.07,-34.38,26.93,-29.42,0.25,-1.93,-130.21,0.421,-0.005,0.016,-0.907
4018926.000000,-0.003,-0.034,1.006,-0.03,-0.05,0.08,-34.64,27.25,-29.67,0.25,-1.93,-130.21,0.421,-0.005,0.016,-0.907
4018936.000000,-0.005,-0.034,1.007,0.01,0.09,-0.03,-34.83,27.25,-29.54,0.25,-1.93,-130.21,0.421,-0.005,0.016,-0.907
4018946.000000,-0.005,-0.032,1.010,0.05,0.14,-0.01,-35.06,27.21,-29.08,0.25,-1.93,-130.21,0.421,-0.005,0.016,-0.907
4018956.000000,-0.007,-0.034,1.006,-0.07,0.03,0.03,-35.14,27.25,-29.79,0.26,-1.93,-130.21,0.421,-0.005,0.016,-0.907
4018966.000000,-0.003,-0.034,1.007,-0.03,-0.03,-0.01,-34.83,27.56,-29.50,0.26,-1.93,-130.21,0.421,-0.005,0.016,-0.907
4018976.000000,-0.005,-0.034,1.011,-0.01,-0.03,-0.13,-34.23,26.98,-29.50,0.25,-1.93,-130.21,0.421,-0.005,0.016,-0.907
4018986.000000,-0.005,-0.034,1.005,0.03,-0.05,0.01,-34.73,26.79,-29.79,0.25,-1.93,-130.21,0.421,-0.005,0.016,-0.907
4018996.000000,-0.003,-0.036,1.011,-0.03,0.03,-0.05,-34.08,27.02,-29.42,0.25,-1.93,-130.21,0.421,-0.005,0.016,-0.907
4019006.000000,-0.003,-0.036,1.013,0.03,0.03,-0.07,-34.42,27.38,-29.33,0.25,-1.93,-130.21,0.421,-0.005,0.016,-0.907
4019016.000000,-0.006,-0.035,1.009,0.05,-0.01,0.01,-34.50,26.83,-29.50,0.25,-1.93,-130.21,0.421,-0.005,0.016,-0.907
4019026.000000,-0.002,-0.034,1.003,-0.05,0.01,-0.01,-35.29,26.88,-29.63,0.25,-1.93,-130.21,0.421,-0.005,0.016,-0.907
4019036.000000,-0.006,-0.034,1.010,0.07,0.07,0.10,-34.83,27.43,-29.63,0.25,-1.93,-130.22,0.421,-0.005,0.016,-0.907
4019046.000000,-0.006,-0.035,1.013,0.01,0.01,0.01,-34.92,26.64,-29.63,0.25,-1.93,-130.21,0.421,-0.005,0.016,-0.907
4019056.000000,-0.003,-0.034,1.007,-0.07,0.14,0.10,-35.25,26.83,-29.75,0.25,-1.93,-130.21,0.421,-0.005,0.016,-0.907
4019066.000000,-0.005,-0.034,1.009,-0.07,0.07,-0.03,-35.56,26.71,-29.58,0.26,-1.93,-130.21,0.421,-0.005,0.016,-0.907
4019076.000000,-0.005,-0.036,1.011,0.09,-0.07,0.03,-34.60,26.98,-29.63,0.26,-1.93,-130.21,0.421,-0.005,0.016,-0.907
4019086.000000,-0.005,-0.032,1.011,0.03,0.09,-0.09,-34.64,26.98,-29.33,0.25,-1.93,-130.21,0.421,-0.005,0.016,-0.907
4019096.000000,-0.005,-0.032,1.009,-0.01,0.05,0.12,-34.77,27.33,-29.58,0.25,-1.93,-130.21,0.421,-0.005,0.016,-0.907
4019106.000000,-0.006,-0.031,1.007,0.01,-0.01,-0.07,-34.50,27.10,-29.71,0.26,-1.93,-130.21,0.421,-0.005,0.016,-0.907
4019116.000000,-0.005,-0.034,1.010,-0.07,0.01,-0.03,-34.50,26.98,-29.46,0.25,-1.93,-130.21,0.421,-0.005,0.016,-0.907
4019126.000000,-0.006,-0.036,1.007,0.03,0.07,-0.05,-34.46,26.88,-29.46,0.25,-1.93,-130.21,0.421,-0.005,0.016,-0.907
4019136.000000,-0.001,-0.032,1.006,0.03,-0.05,-0.09,-34.77,26.79,-29.83,0.25,-1.93,-130.21,0.421,-0.005,0.016,-0.907
4019146.000000,-0.005,-0.032,1.009,-0.07,0.03,-0.03,-34.50,26.93,-29.67,0.25,-1.93,-130.21,0.421,-0.005,0.016,-0.907
4019156.000000,-0.002,-0.035,1.007,-0.05,0.05,0.03,-34.46,27.02,-29.71,0.25,-1.93,-130.21,0.421,-0.005,0.016,-0.907
4019166.000000,-0.002,-0.031,1.006,0.05,-0.01,-0.03,-34.42,27.25,-29.46,0.25,-1.93,-130.21,0.421,-0.005,0.016,-0.907
4019176.000000,-0.002,-0.034,1.006,-0.03,-0.01,-0.03,-35.42,27.25,-29.67,0.25,-1.93,-130.22,0.421,-0.005,0.016,-0.907
4019186.000000,-0.006,-0.035,1.007,-0.01,0.01,-0.01,-35.38,26.56,-29.63,0.25,-1.93,-130.22,0.421,-0.005,0.016,-0.907
4019196.000000,-0.006,-0.034,1.009,0.09,0.22,0.01,-35.33,27.17,-29.83,0.25,-1.93,-130.22,0.421,-0.005,0.016,-0.907
4019206.000000,-0.007,-0.035,1.006,-0.05,0.03,-0.03,-35.56,26.98,-29.54,0.25,-1.93,-130.22,0.421,-0.005,0.016,-0.907
4019216.000000,-0.002,-0.032,1.006,-0.05,0.01,-0.01,-35.56,26.75,-29.63,0.25,-1.93,-130.21,0.421,-0.005,0.016,-0.907
4019226.000000,-0.006,-0.035,1.010,0.03,0.16,-0.01,-35.14,27.06,-29.79,0.25,-1.93,-130.21,0.421,-0.005,0.016,-0.907
4019236.000000,-0.003,-0.035,1.007,0.07,0.14,0.05,-35.25,26.75,-29.67,0.25,-1.93,-130.21,0.421,-0.005,0.016,-0.907
4019246.000000,-0.005,-0.034,1.009,0.03,-0.05,-0.01,-35.06,27.10,-29.71,0.26,-1.93,-130.21,0.421,-0.005,0.016,-0.907
4019256.000000,-0.002,-0.034,1.007,-0.07,0.09,-0.03,-35.14,27.21,-29.46,0.25,-1.93,-130.21,0.421,-0.005,0.016,-0.907
4019266.000000,-0.003,-0.039,1.011,0.05,-0.07,-0.01,-35.00,27.17,-29.33,0.26,-1.93,-130.21,0.421,-0.005,0.016,-0.907
4019276.000000,-0.005,-0.035,1.009,0.03,-0.03,-0.03,-33.46,27.02,-29.58,0.25,-1.93,-130.21,0.421,-0.005,0.016,-0.907
4019286.000000,-0.003,-0.034,1.005,-0.03,0.18,0.06,-33.35,27.38,-29.42,0.25,-1.93,-130.21,0.421,-0.005,0.016,-0.907
4019296.000000,-0.005,-0.035,1.009,-0.01,0.03,-0.01,-33.54,27.29,-29.21,0.25,-1.93,-130.21,0.421,-0.005,0.016,-0.907
4019306.000000,-0.006,-0.035,1.007,-0.07,-0.11,0.01,-33.04,26.83,-29.17,0.26,-1.93,-130.21,0.421,-0.005,0.016,-0.907
4019316.000000,-0.006,-0.036,1.003,-0.01,-0.07,-0.05,-33.08,27.38,-29.25,0.25,-1.93,-130.21,0.421,-0.005,0.016,-0.907
4019326.000000,-0.006,-0.032,1.013,0.03,0.07,0.01,-34.96,27.21,-29.42,0.25,-1.93,-130.21,0.421,-0.005,0.016,-0.907
4019336.000000,-0.007,-0.034,1.006,-0.01,0.12,0.10,-35.18,26.88,-29.33,0.25,-1.93,-130.21,0.421,-0.005,0.016,-0.907
4019346.000000,-0.005,-0.034,1.006,0.01,0.07,-0.03,-35.29,27.56,-29.63,0.25,-1.93,-130.21,0.421,-0.005,0.016,-0.907
4019356.000000,-0.003,-0.034,1.006,-0.01,-0.01,0.08,-35.18,27.60,-29.50,0.26,-1.93,-130.21,0.421,-0.005,0.016,-0.907
4019366.000000,-0.006,-0.035,1.009,-0.15,-0.03,-0.03,-34.92,27.48,-29.46,0.26,-1.93,-130.21,0.421,-0.005,0.016,-0.907
4019376.000000,-0.009,-0.034,1.011,0.01,0.03,-0.03,-35.10,27.06,-29.50,0.25,-1.93,-130.21,0.421,-0.005,0.016,-0.907
4019386.000000,-0.005,-0.035,1.009,-0.09,-0.09,-0.01,-35.52,26.88,-29.25,0.25,-1.93,-130.21,0.421,-0.005,0.016,-0.907
4019396.000000,-0.003,-0.032,1.006,0.01,-0.01,-0.05,-35.64,27.33,-29.58,0.25,-1.93,-130.21,0.421,-0.005,0.016,-0.907
4019406.000000,-0.005,-0.032,1.006,0.13,0.07,-0.05,-35.48,27.25,-29.63,0.25,-1.93,-130.21,0.421,-0.005,0.016,-0.907
4019416.000000,-0.003,-0.034,1.005,-0.03,0.03,-0.01,-35.25,27.06,-29.50,0.25,-1.93,-130.21,0.421,-0.005,0.016,-0.907
4019426.000000,-0.005,-0.035,1.011,-0.01,0.09,-0.03,-34.88,27.79,-29.63,0.25,-1.93,-130.21,0.421,-0.005,0.016,-0.907
4019436.000000,-0.006,-0.034,1.011,0.03,0.07,-0.05,-34.73,27.71,-29.46,0.26,-1.93,-130.21,0.421,-0.005,0.016,-0.907
4019446.000000,-0.002,-0.035,1.007,-0.05,-0.01,0.08,-35.00,27.71,-29.33,0.26,-1.93,-130.21,0.421,-0.005,0.016,-0.907
4019456.000000,-0.003,-0.035,1.007,0.07,0.01,-0.01,-35.14,27.38,-29.83,0.26,-1.93,-130.21,0.421,-0.005,0.016,-0.907
4019466.000000,-0.007,-0.035,1.011,-0.03,0.20,0.03,-35.06,27.25,-29.67,0.26,-1.93,-130.21,0.421,-0.005,0.016,-0.907
4019476.000000,-0.005,-0.032,1.007,0.01,0.03,-0.05,-35.00,26.93,-29.50,0.26,-1.93,-130.21,0.421,-0.005,0.016,-0.907
4019486.000000,-0.005,-0.035,1.009,-0.01,0.01,-0.01,-34.73,27.17,-29.50,0.26,-1.93,-130.21,0.421,-0.005,0.016,-0.907
4019496.000000,-0.002,-0.034,1.010,0.01,0.09,-0.07,-35.10,27.02,-29.46,0.26,-1.93,-130.21,0.421,-0.005,0.016,-0.907
4019506.000000,-0.003,-0.035,1.009,-0.13,-0.01,0.01,-35.25,26.88,-29.42,0.26,-1.93,-130.21,0.421,-0.005,0.016,-0.907
4019516.000000,-0.005,-0.036,1.006,0.01,0.07,0.05,-35.18,27.38,-29.38,0.26,-1.93,-130.21,0.421,-0.005,0.016,-0.907
4019526.000000,-0.007,-0.038,1.010,-0.03,0.09,-0.01,-33.92,26.06,-29.33,0.26,-1.93,-130.21,0.421,-0.005,0.016,-0.907
4019536.000000,-0.002,-0.034,1.006,0.05,0.09,0.01,-34.04,26.52,-29.42,0.26,-1.93,-130.21,0.421,-0.005,0.016,-0.907
4019546.000000,-0.006,-0.035,1.007,-0.01,0.03,-0.03,-34.27,26.29,-29.38,0.26,-1.93,-130.21,0.421,-0.005,0.016,-0.907
4019556.000000,-0.005,-0.032,1.007,-0.05,0.01,-0.07,-34.08,26.33,-29.46,0.26,-1.93,-130.21,0.421,-0.005,0.016,-0.907
4019566.000000,-0.002,-0.036,1.007,0.05,0.12,-0.07,-34.04,26.48,-29.79,0.26,-1.93,-130.22,0.421,-0.005,0.016,-0.907
4019576.000000,-0.003,-0.034,1.007,0.07,0.20,0.05,-34.73,27.06,-29.54,0.26,-1.93,-130.22,0.421,-0.005,0.016,-0.907
4019586.000000,-0.006,-0.032,1.007,0.01,-0.03,0.01,-35.10,26.79,-29.67,0.26,-1.93,-130.22,0.421,-0.005,0.016,-0.907
4019596.000000,-0.003,-0.032,1.009,0.09,0.05,0.03,-35.10,26.64,-29.38,0.26,-1.93,-130.22,0.421,-0.005,0.016,-0.907
4019606.000000,-0.005,-0.032,1.013,0.03,0.05,-0.01,-35.00,27.02,-29.83,0.26,-1.93,-130.22,0.421,-0.005,0.016,-0.907
4019616.000000,-0.003,-0.034,1.007,0.17,0.14,0.05,-34.92,26.75,-29.79,0.26,-1.93,-130.22,0.421,-0.005,0.016,-0.907
4019626.000000,-0.005,-0.036,1.007,0.01,-0.03,-0.05,-34.42,26.75,-29.54,0.26,-1.93,-130.22,0.421,-0.005,0.016,-0.907
4019636.000000,-0.006,-0.034,1.009,0.03,0.05,-0.03,-34.54,26.88,-29.42,0.26,-1.93,-130.22,0.421,-0.005,0.016,-0.907
4019646.000000,-0.005,-0.035,1.010,0.01,0.01,-0.03,-34.68,27.33,-29.58,0.26,-1.93,-130.22,0.421,-0.005,0.016,-0.907
4019656.000000,-0.005,-0.035,1.007,0.07,-0.09,-0.07,-34.27,26.64,-29.63,0.26,-1.93,-130.22,0.421,-0.005,0.016,-0.907
4019666.000000,-0.002,-0.035,1.011,-0.03,0.09,0.06,-34.46,27.17,-29.50,0.26,-1.93,-130.22,0.421,-0.005,0.016,-0.907
4019676.000000,-0.003,-0.030,1.006,0.09,0.05,-0.05,-34.64,27.02,-29.63,0.26,-1.93,-130.22,0.421,-0.005,0.016,-0.907
4019686.000000,-0.003,-0.032,1.006,0.03,-0.01,0.01,-34.38,26.64,-29.67,0.26,-1.93,-130.22,0.421,-0.005,0.016,-0.907
4019696.000000,-0.002,-0.034,1.009,0.05,0.14,0.01,-34.68,26.83,-29.71,0.26,-1.92,-130.22,0.421,-0.005,0.016,-0.907
4019706.000000,-0.005,-0.034,1.010,-0.01,-0.05,0.05,-34.88,27.17,-29.58,0.26,-1.92,-130.22,0.421,-0.005,0.016,-0.907
4019716.000000,-0.006,-0.036,1.010,-0.05,0.09,-0.01,-35.00,26.98,-29.75,0.26,-1.92,-130.22,0.421,-0.005,0.016,-0.907
4019726.000000,-0.003,-0.036,1.006,0.03,-0.07,0.05,-35.10,27.21,-29.54,0.26,-1.93,-130.22,0.421,-0.005,0.016,-0.907
4019736.000000,-0.006,-0.036,1.009,0.03,0.09,-0.03,-34.92,26.88,-29.42,0.26,-1.93,-130.22,0.421,-0.005,0.016,-0.907
4019746.000000,-0.007,-0.034,1.010,0.01,0.03,0.03,-35.14,27.33,-29.38,0.26,-1.92,-130.22,0.421,-0.005,0.016,-0.907
4019756.000000,-0.005,-0.035,1.007,0.03,0.14,0.01,-35.25,27.10,-29.71,0.26,-1.92,-130.22,0.421,-0.005,0.016,-0.907
4019766.000000,-0.002,-0.030,1.010,0.03,-0.05,0.03,-35.33,26.93,-29.67,0.26,-1.92,-130.22,0.421,-0.005,0.016,-0.907
4019776.000000,-0.006,-0.034,1.010,0.03,0.03,0.01,-35.29,27.25,-29.63,0.26,-1.92,-130.22,0.421,-0.005,0.016,-0.907
4019786.000000,-0.005,-0.034,1.007,-0.03,-0.05,-0.09,-35.71,27.52,-29.58,0.26,-1.92,-130.22,0.421,-0.005,0.016,-0.907
4019796.000000,-0.003,-0.034,1.007,-0.05,-0.03,-0.01,-35.88,27.60,-29.50,0.26,-1.92,-130.22,0.421,-0.005,0.016,-0.907
4019806.000000,-0.006,-0.032,1.009,-0.01,0.09,-0.01,-35.64,27.29,-29.50,0.26,-1.92,-130.22,0.421,-0.005,0.016,-0.907
4019816.000000,-0.003,-0.030,1.009,-0.01,0.12,-0.05,-35.25,27.48,-29.50,0.26,-1.92,-130.22,0.421,-0.005,0.016,-0.907
4019826.000000,-0.007,-0.036,1.007,-0.05,-0.19,0.03,-35.75,26.98,-29.54,0.26,-1.92,-130.22,0.421,-0.005,0.016,-0.907
4019836.000000,-0.003,-0.036,1.007,0.01,0.05,-0.03,-35.42,27.43,-29.21,0.26,-1.92,-130.22,0.421,-0.005,0.016,-0.907
4019846.000000,-0.005,-0.034,1.007,0.01,0.07,0.01,-36.02,26.88,-29.00,0.26,-1.92,-130.22,0.421,-0.005,0.016,-0.907
4019856.000000,-0.003,-0.036,1.007,0.05,0.05,-0.05,-35.60,27.02,-29.25,0.26,-1.93,-130.22,0.421,-0.005,0.016,-0.907
4019866.000000,-0.005,-0.034,1.002,0.07,-0.03,-0.03,-35.71,26.88,-29.42,0.26,-1.92,-130.22,0.421,-0.005,0.016,-0.907
4019876.000000,-0.006,-0.034,1.006,0.03,0.09,0.03,-35.18,27.06,-29.50,0.26,-1.92,-130.22,0.421,-0.005,0.016,-0.907
4019886.000000,-0.001,-0.035,1.011,-0.01,0.01,0.01,-35.60,26.83,-29.67,0.26,-1.92,-130.22,0.421,-0.005,0.016,-0.907
4019896.000000,-0.003,-0.034,1.006,-0.05,-0.07,0.03,-35.25,27.21,-29.29,0.26,-1.92,-130.22,0.421,-0.005,0.016,-0.907
4019906.000000,-0.003,-0.032,1.011,0.01,-0.11,-0.01,-35.29,26.93,-29.54,0.26,-1.92,-130.22,0.421,-0.005,0.016,-0.907
4019916.000000,-0.005,-0.032,1.011,-0.01,-0.01,0.01,-35.60,26.88,-29.67,0.26,-1.92,-130.22,0.421,-0.005,0.016,-0.907
4019926.000000,-0.007,-0.034,1.007,0.05,0.05,-0.05,-35.60,26.88,-29.67,0.26,-1.92,-130.22,0.421,-0.005,0.016,-0.907
4019936.000000,-0.005,-0.034,1.010,-0.01,-0.07,0.03,-35.42,27.06,-29.46,0.26,-1.92,-130.22,0.421,-0.005,0.016,-0.907
4019946.000000,-0.007,-0.034,1.009,-0.11,0.12,-0.05,-35.06,27.21,-29.50,0.26,-1.92,-130.22,0.421,-0.005,0.016,-0.907
4019956.000000,-0.003,-0.032,1.011,-0.01,0.07,0.03,-35.33,27.33,-29.63,0.26,-1.92,-130.22,0.421,-0.005,0.016,-0.907
4019966.000000,-0.005,-0.032,1.015,0.03,-0.05,-0.05,-35.38,27.10,-29.58,0.26,-1.93,-130.22,0.421,-0.005,0.016,-0.907
4019976.000000,-0.002,-0.031,1.009,-0.01,-0.01,-0.01,-35.38,27.10,-29.58,0.26,-1.92,-130.22,0.421,-0.005,0.016,-0.907
4019986.000000,-0.005,-0.032,1.009,-0.01,0.05,-0.01,-34.73,28.02,-29.38,0.26,-1.92,-130.22,0.421,-0.005,0.016,-0.907
4019996.000000,-0.005,-0.035,1.010,0.11,0.14,0.05,-34.68,27.60,-29.63,0.26,-1.92,-130.22,0.421,-0.005,0.016,-0.907
4020006.000000,-0.003,-0.031,1.005,0.05,0.12,0.03,-34.68,27.98,-29.42,0.26,-1.92,-130.22,0.421,-0.005,0.016,-0.907
4020016.000000,-0.003,-0.035,1.010,-0.07,-0.01,-0.01,-34.77,28.06,-29.29,0.26,-1.92,-130.22,0.421,-0.005,0.016,-0.907
4020026.000000,-0.006,-0.035,1.013,-0.01,0.12,0.03,-34.77,28.06,-29.29,0.26,-1.92,-130.22,0.421,-0.005,0.016,-0.907
4020036.000000,-0.003,-0.032,1.003,-0.09,0.20,-0.01,-35.64,27.56,-29.79,0.26,-1.92,-130.22,0.421,-0.005,0.016,-0.907
4020046.000000,-0.005,-0.034,1.014,0.05,0.03,0.05,-35.75,27.17,-29.63,0.26,-1.92,-130.22,0.421,-0.005,0.016,-0.907
4020056.000000,-0.005,-0.034,1.010,-0.01,0.01,-0.07,-35.71,27.71,-29.42,0.26,-1.92,-130.21,0.421,-0.005,0.016,-0.907
4020066.000000,-0.003,-0.035,1.009,0.11,-0.03,-0.03,-35.75,27.48,-29.33,0.26,-1.93,-130.22,0.421,-0.005,0.016,-0.907
4020076.000000,-0.006,-0.035,1.009,-0.05,0.18,0.01,-35.75,27.48,-29.33,0.26,-1.92,-130.22,0.421,-0.005,0.016,-0.907
4020086.000000,-0.003,-0.032,1.011,-0.01,0.12,-0.03,-35.25,27.21,-29.67,0.26,-1.92,-130.22,0.421,-0.005,0.016,-0.907
4020096.000000,-0.005,-0.035,1.005,0.09,-0.01,0.07,-35.48,26.88,-29.46,0.26,-1.93,-130.22,0.421,-0.005,0.016,-0.907
4020106.000000,-0.006,-0.035,1.015,0.01,0.14,0.01,-35.25,27.38,-29.67,0.26,-1.92,-130.22,0.421,-0.005,0.016,-0.907
4020116.000000,-0.007,-0.034,1.007,0.03,-0.01,0.07,-35.14,27.56,-29.83,0.26,-1.92,-130.22,0.421,-0.005,0.016,-0.907
4020126.000000,-0.003,-0.035,1.007,-0.01,0.20,0.03,-35.14,27.56,-29.83,0.26,-1.92,-130.21,0.421,-0.005,0.016,-0.907
4020136.000000,-0.006,-0.036,1.011,-0.11,0.05,0.04,-35.71,27.67,-29.25,0.27,-1.92,-130.21,0.421,-0.005,0.016,-0.907
4020146.000000,-0.003,-0.034,1.006,0.01,0.01,-0.11,-35.48,27.60,-29.46,0.27,-1.93,-130.21,0.421,-0.005,0.016,-0.907
4020156.000000,-0.005,-0.035,1.009,-0.01,0.07,0.05,-35.64,27.38,-29.46,0.26,-1.93,-130.21,0.421,-0.005,0.016,-0.907
4020166.000000,-0.007,-0.036,1.011,-0.07,-0.09,0.03,-35.38,27.29,-29.71,0.27,-1.93,-130.21,0.421,-0.005,0.016,-0.907
4020176.000000,-0.006,-0.034,1.007,0.05,0.09,-0.01,-35.38,27.29,-29.71,0.26,-1.93,-130.21,0.421,-0.005,0.016,-0.907
4020186.000000,-0.005,-0.035,1.009,0.03,0.01,0.01,-35.60,27.71,-29.63,0.27,-1.93,-130.21,0.421,-0.005,0.016,-0.907
4020196.000000,-0.006,-0.035,1.010,-0.01,0.05,0.01,-35.18,27.52,-29.67,0.27,-1.93,-130.21,0.421,-0.005,0.016,-0.907
4020206.000000,-0.006,-0.034,1.009,0.01,0.03,-0.05,-35.71,27.38,-29.71,0.27,-1.93,-130.21,0.421,-0.005,0.016,-0.907
4020216.000000,-0.005,-0.034,1.007,-0.03,-0.05,-0.05,-35.64,27.67,-29.83,0.27,-1.93,-130.21,0.421,-0.005,0.016,-0.907
4020226.000000,-0.006,-0.032,1.009,0.01,-0.11,-0.07,-35.64,27.67,-29.83,0.27,-1.93,-130.21,0.421,-0.005,0.016,-0.907
4020236.000000,-0.002,-0.035,1.009,0.05,0.05,0.05,-35.18,27.52,-29.17,0.26,-1.93,-130.22,0.421,-0.005,0.016,-0.907
4020246.000000,-0.005,-0.035,1.009,-0.01,0.14,-0.03,-35.10,27.48,-29.42,0.26,-1.93,-130.21,0.421,-0.005,0.016,-0.907
4020256.000000,-0.005,-0.032,1.003,-0.01,0.07,-0.05,-34.92,27.33,-29.00,0.26,-1.93,-130.22,0.421,-0.005,0.016,-0.907
4020266.000000,-0.001,-0.032,1.009,-0.05,0.14,-0.03,-35.10,27.33,-29.13,0.27,-1.93,-130.22,0.421,-0.005,0.016,-0.907
4020276.000000,-0.006,-0.038,1.009,0.07,-0.03,0.14,-35.10,27.33,-29.13,0.27,-1.93,-130.22,0.421,-0.005,0.016,-0.907
4020286.000000,-0.005,-0.032,1.010,-0.05,0.03,-0.01,-35.48,27.48,-29.29,0.26,-1.93,-130.22,0.421,-0.005,0.016,-0.907
4020296.000000,-0.003,-0.034,1.006,-0.01,0.05,0.01,-34.92,27.56,-29.25,0.26,-1.93,-130.21,0.421,-0.005,0.016,-0.907
4020306.000000,-0.005,-0.031,1.010,0.11,0.16,-0.01,-35.75,27.06,-29.21,0.26,-1.93,-130.21,0.421,-0.005,0.016,-0.907
4020316.000000,-0.002,-0.032,1.007,-0.01,0.07,-0.05,-35.75,27.06,-29.21,0.27,-1.93,-130.21,0.421,-0.005,0.016,-0.907
4020326.000000,-0.009,-0.036,1.010,-0.07,-0.01,0.08,-35.75,27.06,-29.21,0.27,-1.93,-130.21,0.421,-0.005,0.016,-0.907
4020336.000000,-0.005,-0.036,1.010,0.11,0.07,0.05,-34.14,27.06,-29.92,0.26,-1.93,-130.21,0.421,-0.005,0.016,-0.907
4020346.000000,-0.003,-0.035,1.013,-0.03,0.03,0.01,-34.14,27.06,-29.92,0.27,-1.93,-130.21,0.421,-0.005,0.016,-0.907
4020356.000000,-0.006,-0.031,1.007,-0.01,0.12,-0.09,-34.14,27.06,-29.92,0.27,-1.93,-130.21,0.421,-0.005,0.016,-0.907
4020366.000000,-0.007,-0.034,1.011,0.05,0.09,0.05,-34.18,27.48,-29.17,0.27,-1.93,-130.21,0.421,-0.005,0.016,-0.907
