TimeStamp,AccX,AccY,AccZ,GyrX,GyrY,GyrZ,MagX,MagY,MagZ,Roll,Pitch,Yaw,Qw,Qx,Qy,Qz
4636063.000000,-0.997,-0.024,-0.149,-0.01,0.05,0.03,9.77,33.29,1.71,98.57,-1.37,-89.99,0.455,0.530,0.541,-0.468
4636073.000000,-0.996,-0.024,-0.152,0.01,-0.01,0.08,9.77,33.33,1.63,98.57,-1.37,-89.99,0.455,0.530,0.541,-0.468
4636083.000000,-0.994,-0.023,-0.150,0.03,-0.09,0.07,10.27,34.98,1.38,98.57,-1.37,-90.00,0.455,0.530,0.541,-0.468
4636093.000000,-0.996,-0.023,-0.152,0.07,0.07,0.01,10.18,34.71,1.13,98.57,-1.37,-90.00,0.455,0.530,0.541,-0.468
4636103.000000,-0.996,-0.022,-0.152,-0.05,0.05,0.01,10.50,35.21,1.46,98.57,-1.37,-90.00,0.455,0.530,0.541,-0.468
4636113.000000,-0.994,-0.024,-0.145,0.03,-0.01,-0.01,10.00,34.93,1.67,98.57,-1.37,-90.00,0.455,0.530,0.541,-0.468
4636123.000000,-0.996,-0.024,-0.149,-0.07,0.05,-0.07,10.13,34.98,1.58,98.57,-1.37,-90.00,0.455,0.530,0.541,-0.468
4636133.000000,-0.996,-0.026,-0.150,-0.07,-0.05,-0.07,10.88,33.79,1.42,98.57,-1.37,-90.00,0.455,0.530,0.541,-0.468
4636143.000000,-0.996,-0.024,-0.152,-0.09,0.01,0.01,10.54,33.79,1.54,98.57,-1.37,-89.99,0.455,0.530,0.541,-0.468
4636153.000000,-0.994,-0.026,-0.149,-0.07,0.01,-0.01,10.46,33.64,1.33,98.57,-1.37,-89.99,0.455,0.530,0.541,-0.468
4636163.000000,-0.997,-0.024,-0.149,-0.03,0.01,-0.07,10.54,33.60,1.00,98.57,-1.37,-89.99,0.455,0.530,0.541,-0.468
4636173.000000,-0.993,-0.023,-0.150,0.03,-0.01,0.07,10.88,33.68,1.08,98.57,-1.37,-89.99,0.455,0.530,0.541,-0.468
4636183.000000,-0.996,-0.023,-0.150,0.01,-0.07,-0.07,10.54,34.21,1.50,98.57,-1.37,-89.99,0.455,0.530,0.541,-0.468
4636193.000000,-0.997,-0.024,-0.147,-0.03,0.16,0.06,10.46,33.64,1.38,98.57,-1.37,-89.99,0.455,0.530,0.541,-0.468
4636203.000000,-0.996,-0.023,-0.153,-0.05,0.01,0.14,10.64,33.75,1.33,98.57,-1.37,-89.99,0.455,0.530,0.541,-0.468
4636213.000000,-0.997,-0.023,-0.149,-0.03,-0.03,-0.01,10.88,33.64,1.29,98.57,-1.37,-89.99,0.455,0.530,0.541,-0.468
4636223.000000,-0.998,-0.024,-0.147,0.07,-0.03,0.01,10.64,33.64,1.50,98.57,-1.37,-89.99,0.455,0.530,0.541,-0.468
4636233.000000,-0.994,-0.022,-0.149,-0.09,0.12,-0.01,10.23,33.98,1.46,98.57,-1.37,-89.99,0.455,0.530,0.541,-0.468
4636243.000000,-0.997,-0.026,-0.150,0.01,0.09,0.03,10.42,33.75,1.38,98.57,-1.37,-89.99,0.455,0.530,0.541,-0.468
4636253.000000,-0.992,-0.027,-0.154,-0.05,0.05,0.01,10.13,33.60,1.21,98.57,-1.37,-89.99,0.455,0.530,0.541,-0.468
4636263.000000,-0.998,-0.023,-0.153,0.03,0.01,-0.01,10.50,34.06,1.38,98.57,-1.37,-89.99,0.455,0.530,0.541,-0.468
4636273.000000,-0.993,-0.024,-0.150,0.09,-0.05,0.05,10.46,33.79,1.33,98.57,-1.37,-89.99,0.455,0.530,0.541,-0.468
4636283.000000,-0.998,-0.022,-0.154,-0.01,0.01,-0.09,9.85,34.06,1.46,98.57,-1.37,-89.99,0.455,0.530,0.541,-0.468
4636293.000000,-0.992,-0.024,-0.149,-0.03,0.03,0.01,10.23,33.68,1.46,98.57,-1.37,-89.99,0.455,0.530,0.541,-0.468
4636303.000000,-0.996,-0.023,-0.149,0.03,0.01,0.01,9.96,33.83,1.42,98.57,-1.37,-89.99,0.455,0.530,0.541,-0.468
4636313.000000,-0.993,-0.024,-0.153,0.07,-0.03,-0.03,9.73,33.88,1.25,98.57,-1.37,-89.99,0.455,0.530,0.541,-0.468
4636323.000000,-0.993,-0.024,-0.148,-0.13,0.12,0.02,10.27,34.14,1.54,98.57,-1.37,-89.99,0.455,0.530,0.541,-0.468
4636333.000000,-0.994,-0.024,-0.147,0.09,-0.13,0.03,11.10,33.06,1.46,98.57,-1.37,-89.99,0.455,0.530,0.541,-0.468
4636343.000000,-0.992,-0.024,-0.153,-0.13,0.05,-0.01,11.18,33.38,1.50,98.57,-1.37,-89.99,0.455,0.530,0.541,-0.468
4636353.000000,-0.994,-0.024,-0.149,-0.05,0.16,0.03,11.14,33.33,1.71,98.57,-1.37,-89.99,0.455,0.530,0.541,-0.468
4636363.000000,-0.996,-0.023,-0.149,0.09,0.03,0.05,11.14,33.18,1.58,98.57,-1.37,-89.99,0.455,0.530,0.541,-0.468
4636373.000000,-0.997,-0.026,-0.152,-0.07,0.03,0.01,11.38,33.46,1.71,98.57,-1.37,-89.99,0.455,0.530,0.541,-0.468
4636383.000000,-0.996,-0.024,-0.150,0.05,-0.05,-0.05,11.64,33.83,1.54,98.57,-1.37,-89.99,0.455,0.530,0.541,-0.468
4636393.000000,-0.996,-0.023,-0.150,-0.05,0.07,-0.09,11.18,34.43,1.29,98.57,-1.37,-89.99,0.455,0.530,0.541,-0.468
4636403.000000,-0.997,-0.027,-0.154,0.03,0.14,0.01,11.56,34.21,1.54,98.57,-1.37,-89.99,0.455,0.530,0.541,-0.468
4636413.000000,-0.997,-0.022,-0.150,0.05,-0.03,-0.05,11.10,34.14,1.58,98.57,-1.37,-89.99,0.455,0.530,0.541,-0.468
4636423.000000,-0.993,-0.024,-0.148,0.03,0.09,-0.01,11.46,33.83,1.71,98.57,-1.37,-89.99,0.455,0.530,0.541,-0.468
4636433.000000,-0.996,-0.026,-0.149,-0.01,0.05,-0.01,10.23,33.79,1.50,98.57,-1.37,-89.99,0.455,0.530,0.541,-0.468
4636443.000000,-0.996,-0.024,-0.148,-0.01,0.09,0.05,10.27,34.21,1.58,98.57,-1.37,-89.99,0.455,0.530,0.541,-0.468
4636453.000000,-0.994,-0.022,-0.150,-0.01,0.05,-0.03,10.00,33.88,1.83,98.57,-1.37,-89.99,0.455,0.530,0.541,-0.468
4636463.000000,-0.996,-0.024,-0.152,-0.05,0.01,0.06,9.96,34.10,1.92,98.57,-1.37,-89.99,0.455,0.530,0.541,-0.468
4636473.000000,-0.994,-0.026,-0.149,0.01,-0.15,-0.01,10.08,34.06,1.92,98.57,-1.37,-89.99,0.455,0.530,0.541,-0.468
4636483.000000,-0.993,-0.023,-0.153,0.05,0.05,-0.01,10.46,34.52,1.42,98.57,-1.37,-89.99,0.455,0.530,0.541,-0.468
4636493.000000,-0.994,-0.026,-0.149,-0.03,0.14,0.06,10.46,34.98,1.42,98.57,-1.37,-89.99,0.455,0.530,0.541,-0.468
4636503.000000,-0.996,-0.023,-0.152,0.07,0.03,0.01,10.46,34.93,1.13,98.57,-1.37,-89.99,0.455,0.530,0.541,-0.468
4636513.000000,-1.001,-0.024,-0.145,-0.03,0.12,-0.01,10.13,34.60,1.63,98.57,-1.37,-89.99,0.455,0.530,0.541,-0.468
4636523.000000,-0.996,-0.024,-0.149,-0.07,0.03,-0.09,10.73,34.79,1.58,98.57,-1.37,-89.99,0.455,0.530,0.541,-0.468
4636533.000000,-0.996,-0.026,-0.152,-0.03,-0.01,0.01,10.00,34.33,1.33,98.57,-1.37,-89.99,0.455,0.530,0.541,-0.468
4636543.000000,-0.994,-0.026,-0.148,0.09,0.09,-0.09,9.81,34.43,1.75,98.57,-1.37,-89.99,0.455,0.530,0.541,-0.468
4636553.000000,-0.997,-0.024,-0.149,0.07,0.01,0.01,9.89,34.60,1.75,98.57,-1.37,-89.99,0.455,0.530,0.541,-0.468
4636563.000000,-0.993,-0.022,-0.153,-0.09,-0.07,-0.05,9.63,33.98,1.42,98.57,-1.37,-89.99,0.455,0.530,0.541,-0.468
4636573.000000,-0.998,-0.024,-0.150,0.07,-0.03,0.01,10.08,34.25,1.42,98.57,-1.37,-89.99,0.455,0.530,0.541,-0.468
4636583.000000,-0.994,-0.024,-0.153,0.01,0.05,0.10,10.77,34.67,1.46,98.57,-1.37,-89.99,0.455,0.530,0.541,-0.468
4636593.000000,-0.994,-0.022,-0.149,0.05,-0.03,0.05,10.73,34.56,1.21,98.57,-1.37,-89.99,0.455,0.530,0.541,-0.468
4636603.000000,-0.997,-0.024,-0.148,0.05,0.14,0.03,10.35,34.48,1.54,98.57,-1.37,-89.99,0.455,0.530,0.541,-0.468
4636613.000000,-0.993,-0.024,-0.148,0.01,-0.05,-0.09,10.73,34.60,1.58,98.57,-1.37,-89.99,0.455,0.530,0.541,-0.468
4636623.000000,-0.994,-0.023,-0.149,0.07,0.01,-0.07,10.50,34.52,1.21,98.57,-1.37,-89.99,0.455,0.530,0.541,-0.468
4636633.000000,-0.996,-0.026,-0.153,-0.01,0.03,0.01,11.60,34.21,1.29,98.57,-1.37,-90.00,0.455,0.530,0.541,-0.468
4636643.000000,-0.997,-0.024,-0.149,-0.03,-0.05,-0.05,11.46,33.92,1.50,98.57,-1.37,-90.00,0.455,0.530,0.541,-0.468
4636653.000000,-0.996,-0.023,-0.150,-0.03,0.01,0.10,11.10,33.75,1.67,98.57,-1.37,-90.00,0.455,0.530,0.541,-0.468
4636663.000000,-0.996,-0.024,-0.150,0.03,-0.03,0.01,11.50,33.98,1.63,98.57,-1.37,-90.00,0.455,0.530,0.541,-0.468
4636673.000000,-0.994,-0.023,-0.149,0.11,0.05,0.05,11.18,33.83,1.42,98.57,-1.37,-90.00,0.455,0.530,0.541,-0.468
4636683.000000,-0.994,-0.023,-0.148,-0.09,-0.01,-0.01,11.14,34.21,1.46,98.57,-1.37,-90.00,0.455,0.530,0.541,-0.468
4636693.000000,-0.994,-0.023,-0.147,0.01,-0.05,-0.05,11.14,34.06,1.38,98.57,-1.36,-90.00,0.455,0.530,0.541,-0.468
4636703.000000,-0.996,-0.024,-0.152,0.01,0.09,-0.05,11.10,34.43,0.96,98.57,-1.36,-90.00,0.455,0.530,0.541,-0.468
4636713.000000,-0.993,-0.024,-0.150,0.01,-0.07,-0.05,11.10,34.06,1.17,98.57,-1.36,-90.00,0.455,0.530,0.541,-0.468
4636723.000000,-0.996,-0.024,-0.150,-0.01,0.01,0.03,11.04,33.98,1.29,98.57,-1.37,-90.00,0.455,0.530,0.541,-0.468
4636733.000000,-0.996,-0.024,-0.149,0.07,0.07,0.03,11.60,34.02,1.46,98.57,-1.37,-90.00,0.455,0.530,0.541,-0.468
4636743.000000,-0.994,-0.022,-0.145,-0.03,-0.03,-0.01,12.10,34.21,1.38,98.57,-1.37,-90.00,0.455,0.530,0.541,-0.468
4636753.000000,-0.994,-0.023,-0.149,-0.05,-0.01,-0.05,12.02,33.60,1.42,98.57,-1.36,-90.00,0.455,0.530,0.541,-0.468
4636763.000000,-0.993,-0.023,-0.150,-0.11,0.01,-0.09,12.33,33.98,1.71,98.57,-1.36,-90.00,0.455,0.530,0.541,-0.468
4636773.000000,-0.993,-0.022,-0.148,0.01,0.05,0.03,12.10,33.88,1.50,98.57,-1.37,-89.99,0.455,0.530,0.541,-0.468
4636783.000000,-0.996,-0.026,-0.154,0.03,0.03,0.07,11.56,34.02,1.50,98.57,-1.37,-89.99,0.455,0.530,0.541,-0.468
4636793.000000,-0.998,-0.024,-0.152,-0.05,0.07,0.08,11.64,34.06,1.50,98.57,-1.36,-89.99,0.455,0.530,0.541,-0.468
4636803.000000,-0.996,-0.022,-0.153,-0.01,-0.05,0.03,11.38,33.98,1.67,98.57,-1.36,-89.99,0.455,0.530,0.541,-0.468
4636813.000000,-0.997,-0.024,-0.152,-0.01,0.12,-0.03,11.50,34.52,1.63,98.57,-1.36,-89.99,0.455,0.530,0.541,-0.468
4636823.000000,-0.994,-0.024,-0.152,-0.05,-0.07,0.01,11.10,33.83,1.29,98.57,-1.36,-89.99,0.455,0.530,0.541,-0.468
4636833.000000,-0.996,-0.024,-0.147,-0.01,0.01,-0.03,11.92,34.60,1.79,98.57,-1.36,-89.99,0.455,0.530,0.541,-0.468
4636843.000000,-0.997,-0.024,-0.152,-0.07,-0.13,0.03,12.06,34.98,1.58,98.57,-1.36,-89.99,0.455,0.530,0.541,-0.468
4636853.000000,-0.996,-0.026,-0.150,0.05,-0.03,0.07,11.68,34.67,1.54,98.57,-1.36,-89.99,0.455,0.530,0.541,-0.468
4636863.000000,-1.000,-0.026,-0.148,0.05,0.05,0.07,11.98,34.33,1.54,98.57,-1.36,-89.99,0.455,0.530,0.541,-0.468
4636873.000000,-0.994,-0.024,-0.150,-0.01,-0.03,-0.01,12.02,34.71,1.75,98.57,-1.36,-89.99,0.455,0.530,0.541,-0.468
4636883.000000,-0.996,-0.023,-0.148,-0.07,-0.03,0.01,11.27,33.88,1.38,98.57,-1.36,-90.00,0.455,0.530,0.541,-0.468
4636893.000000,-0.994,-0.027,-0.153,-0.11,0.09,-0.05,11.46,34.10,1.42,98.57,-1.36,-89.99,0.455,0.530,0.541,-0.468
4636903.000000,-0.994,-0.024,-0.149,0.03,0.05,0.12,11.56,34.43,1.67,98.57,-1.36,-89.99,0.455,0.530,0.541,-0.468
4636913.000000,-0.994,-0.022,-0.150,-0.03,0.05,-0.05,11.88,34.02,1.58,98.57,-1.36,-89.99,0.455,0.530,0.541,-0.468
4636923.000000,-0.994,-0.024,-0.149,0.07,0.12,-0.05,11.04,34.02,1.42,98.57,-1.36,-89.99,0.455,0.530,0.541,-0.468
4636933.000000,-0.994,-0.021,-0.153,-0.01,-0.03,0.08,11.88,33.92,1.58,98.57,-1.36,-89.99,0.455,0.530,0.541,-0.468
4636943.000000,-0.996,-0.023,-0.152,-0.03,-0.01,-0.09,11.83,33.52,1.75,98.57,-1.36,-89.99,0.455,0.530,0.541,-0.468
4636953.000000,-0.996,-0.024,-0.150,0.01,-0.07,0.05,12.14,33.60,1.46,98.57,-1.36,-89.99,0.455,0.530,0.541,-0.468
4636963.000000,-0.997,-0.026,-0.150,0.03,-0.01,-0.05,12.06,33.60,1.58,98.57,-1.36,-89.99,0.455,0.530,0.541,-0.468
4636973.000000,-0.998,-0.023,-0.148,-0.01,-0.01,-0.05,12.33,33.56,1.54,98.57,-1.36,-89.99,0.455,0.530,0.541,-0.468
4636983.000000,-0.994,-0.026,-0.154,-0.03,-0.01,0.03,12.56,33.98,1.54,98.57,-1.36,-89.99,0.455,0.530,0.541,-0.468
4636993.000000,-0.998,-0.026,-0.152,0.03,0.01,0.10,12.56,33.52,1.25,98.57,-1.36,-89.99,0.455,0.530,0.541,-0.468
4637003.000000,-0.994,-0.024,-0.152,-0.09,0.16,-0.01,12.43,33.68,1.67,98.57,-1.36,-89.99,0.455,0.530,0.541,-0.468
4637013.000000,-0.998,-0.022,-0.150,-0.03,0.03,0.03,12.43,33.88,1.29,98.57,-1.36,-89.99,0.455,0.530,0.541,-0.468
4637023.000000,-0.997,-0.023,-0.149,0.05,-0.03,0.01,12.38,34.14,1.71,98.57,-1.36,-89.99,0.455,0.530,0.541,-0.468
4637033.000000,-0.994,-0.026,-0.149,-0.03,0.07,0.01,12.48,34.02,1.71,98.57,-1.36,-89.99,0.455,0.530,0.541,-0.468
4637043.000000,-0.996,-0.026,-0.150,-0.01,0.09,-0.09,12.25,33.92,1.75,98.57,-1.36,-89.99,0.455,0.530,0.541,-0.468
4637053.000000,-0.994,-0.024,-0.150,0.03,0.07,-0.01,12.29,34.02,1.33,98.57,-1.36,-89.99,0.455,0.530,0.541,-0.468
4637063.000000,-0.996,-0.022,-0.153,-0.05,-0.01,-0.01,12.33,33.79,1.33,98.57,-1.36,-89.99,0.455,0.530,0.541,-0.468
4637073.000000,-0.996,-0.026,-0.148,0.01,0.01,-0.01,12.52,34.02,1.63,98.57,-1.36,-89.99,0.455,0.530,0.541,-0.468
4637083.000000,-0.996,-0.024,-0.149,0.05,0.03,0.05,13.17,34.60,1.67,98.57,-1.36,-89.99,0.455,0.530,0.541,-0.468
4637093.000000,-0.996,-0.022,-0.153,-0.03,0.05,-0.09,12.93,34.43,1.88,98.57,-1.36,-89.99,0.455,0.530,0.541,-0.468
4637103.000000,-0.998,-0.024,-0.149,-0.03,-0.03,0.01,13.29,34.79,1.67,98.57,-1.36,-89.99,0.455,0.530,0.541,-0.468
4637113.000000,-0.997,-0.023,-0.154,-0.01,0.07,-0.01,13.02,34.89,1.88,98.57,-1.36,-89.99,0.455,0.530,0.541,-0.468
4637123.000000,-0.998,-0.023,-0.150,-0.13,-0.03,0.04,13.17,34.75,1.71,98.57,-1.36,-89.99,0.455,0.530,0.541,-0.468
4637133.000000,-0.996,-0.023,-0.148,0.01,-0.05,0.01,12.43,33.92,1.58,98.57,-1.36,-89.99,0.455,0.530,0.541,-0.468
4637143.000000,-0.994,-0.026,-0.148,-0.01,0.14,-0.09,12.43,33.64,1.46,98.57,-1.36,-89.99,0.455,0.530,0.541,-0.468
4637153.000000,-0.996,-0.023,-0.148,-0.05,0.12,0.01,12.48,33.68,1.54,98.57,-1.36,-89.99,0.455,0.530,0.541,-0.468
4637163.000000,-0.994,-0.022,-0.152,0.01,0.01,0.03,12.38,33.98,1.75,98.57,-1.36,-89.99,0.455,0.530,0.541,-0.468
4637173.000000,-0.996,-0.024,-0.147,-0.05,0.03,-0.05,12.29,33.52,1.33,98.57,-1.36,-89.99,0.455,0.530,0.541,-0.468
4637183.000000,-0.996,-0.024,-0.152,0.07,-0.03,0.03,12.02,34.10,1.50,98.57,-1.36,-89.99,0.455,0.530,0.541,-0.468
4637193.000000,-0.996,-0.024,-0.153,-0.03,0.03,0.03,12.06,33.98,1.83,98.57,-1.36,-89.99,0.455,0.530,0.541,-0.468
4637203.000000,-0.996,-0.022,-0.152,-0.03,0.07,0.12,12.25,33.68,1.71,98.57,-1.36,-89.99,0.455,0.530,0.541,-0.468
4637214.000000,-0.993,-0.023,-0.154,0.01,-0.01,0.05,12.06,34.33,1.38,98.57,-1.36,-89.99,0.455,0.530,0.541,-0.468
4637224.000000,-0.996,-0.026,-0.152,0.05,-0.03,-0.03,12.21,34.06,1.63,98.57,-1.36,-89.99,0.455,0.530,0.541,-0.468
4637234.000000,-0.994,-0.027,-0.148,-0.03,-0.01,-0.03,11.75,34.06,1.63,98.57,-1.36,-89.99,0.455,0.530,0.541,-0.468
4637244.000000,-0.994,-0.023,-0.150,-0.05,0.01,-0.05,12.48,33.68,1.33,98.57,-1.36,-89.99,0.455,0.530,0.541,-0.468
4637254.000000,-0.996,-0.024,-0.149,0.05,0.09,0.01,12.02,34.52,1.58,98.57,-1.36,-89.99,0.455,0.530,0.541,-0.468
4637264.000000,-0.993,-0.023,-0.147,0.01,0.09,0.08,12.21,34.10,1.96,98.57,-1.36,-89.99,0.455,0.530,0.541,-0.468
4637274.000000,-0.997,-0.023,-0.150,-0.03,-0.07,-0.03,12.10,34.02,1.67,98.57,-1.36,-89.99,0.455,0.530,0.541,-0.468
4637284.000000,-0.992,-0.023,-0.152,0.07,0.01,-0.01,11.42,33.38,1.58,98.57,-1.36,-89.99,0.455,0.530,0.541,-0.468
4637294.000000,-0.993,-0.021,-0.153,-0.03,0.16,-0.07,11.64,33.10,1.50,98.57,-1.36,-89.99,0.455,0.530,0.541,-0.468
4637303.000000,-0.994,-0.026,-0.153,-0.11,0.03,0.04,11.56,33.52,1.42,98.57,-1.36,-89.99,0.455,0.530,0.541,-0.468
4637313.000000,-0.994,-0.024,-0.144,0.03,-0.03,0.03,11.46,33.79,1.50,98.57,-1.36,-89.99,0.455,0.530,0.541,-0.468
4637323.000000,-0.994,-0.024,-0.150,0.11,-0.05,-0.01,11.50,33.75,1.29,98.57,-1.36,-89.99,0.455,0.530,0.541,-0.468
4637333.000000,-0.997,-0.024,-0.149,0.05,0.01,-0.01,11.46,33.75,1.50,98.57,-1.36,-89.99,0.455,0.530,0.541,-0.468
4637343.000000,-0.996,-0.026,-0.148,-0.05,-0.15,-0.01,11.60,33.60,1.46,98.57,-1.36,-89.99,0.455,0.530,0.541,-0.468
4637353.000000,-0.994,-0.024,-0.150,0.03,-0.01,0.01,11.79,33.60,1.67,98.57,-1.36,-89.99,0.455,0.530,0.541,-0.468
4637363.000000,-0.994,-0.024,-0.148,-0.01,0.05,0.05,11.64,33.23,1.67,98.57,-1.36,-89.99,0.455,0.530,0.541,-0.468
4637373.000000,-0.994,-0.024,-0.152,-0.03,-0.05,-0.03,11.38,33.88,1.63,98.57,-1.36,-89.99,0.455,0.530,0.541,-0.468
4637383.000000,-0.997,-0.023,-0.152,0.07,0.03,-0.09,11.83,33.56,1.50,98.57,-1.36,-89.99,0.455,0.530,0.541,-0.468
4637393.000000,-0.996,-0.024,-0.150,-0.01,0.03,0.05,11.60,33.52,1.67,98.57,-1.36,-89.99,0.455,0.530,0.541,-0.468
4637403.000000,-0.997,-0.024,-0.149,-0.05,-0.03,-0.05,11.46,33.52,1.58,98.57,-1.36,-89.99,0.455,0.530,0.541,-0.468
4637414.000000,-0.996,-0.027,-0.153,0.01,-0.09,-0.03,12.14,33.60,1.25,98.57,-1.36,-89.99,0.455,0.530,0.541,-0.468
4637424.000000,-0.996,-0.022,-0.152,0.11,-0.01,0.05,11.92,33.42,1.42,98.57,-1.36,-89.99,0.455,0.530,0.541,-0.468
4637434.000000,-0.996,-0.026,-0.147,-0.03,-0.05,-0.01,11.92,33.42,1.42,98.57,-1.36,-89.99,0.455,0.530,0.541,-0.468
4637444.000000,-0.996,-0.023,-0.147,0.01,-0.01,-0.01,11.64,34.38,1.67,98.57,-1.36,-89.99,0.455,0.530,0.541,-0.468
4637454.000000,-0.993,-0.026,-0.149,-0.01,0.03,0.03,11.83,34.10,1.46,98.57,-1.36,-89.99,0.455,0.530,0.541,-0.468
4637464.000000,-0.996,-0.027,-0.152,-0.03,0.24,-0.05,11.79,34.21,1.71,98.57,-1.36,-89.99,0.455,0.530,0.541,-0.468
4637474.000000,-0.994,-0.024,-0.149,0.01,-0.01,-0.01,11.68,34.48,1.50,98.57,-1.36,-89.99,0.455,0.530,0.541,-0.468
4637484.000000,-0.994,-0.024,-0.150,-0.07,0.03,0.14,11.68,34.48,1.50,98.57,-1.36,-89.99,0.455,0.530,0.541,-0.468
4637494.000000,-0.993,-0.024,-0.154,-0.03,-0.09,-0.03,12.21,33.88,1.75,98.57,-1.36,-89.99,0.455,0.530,0.541,-0.468
4637504.000000,-0.992,-0.026,-0.150,-0.07,0.01,-0.01,11.79,33.98,1.71,98.57,-1.36,-89.99,0.455,0.530,0.541,-0.468
4637514.000000,-0.998,-0.024,-0.152,-0.01,-0.03,0.01,12.02,34.02,1.92,98.57,-1.36,-89.99,0.455,0.530,0.541,-0.468
4637524.000000,-0.996,-0.023,-0.149,0.03,-0.13,-0.01,11.64,33.75,1.54,98.57,-1.36,-89.99,0.455,0.530,0.541,-0.468
4637534.000000,-0.998,-0.026,-0.149,-0.09,0.18,0.06,11.64,33.75,1.54,98.57,-1.36,-89.99,0.455,0.530,0.541,-0.468
4637544.000000,-0.993,-0.023,-0.150,-0.03,0.01,-0.03,11.42,33.38,1.50,98.57,-1.36,-89.99,0.455,0.530,0.541,-0.468
4637554.000000,-0.996,-0.026,-0.152,0.03,-0.01,0.03,11.68,33.33,1.58,98.57,-1.36,-89.99,0.455,0.530,0.541,-0.468
4637564.000000,-0.994,-0.024,-0.152,0.05,-0.01,-0.03,11.38,33.29,2.00,98.57,-1.36,-89.99,0.455,0.530,0.541,-0.468
4637574.000000,-0.994,-0.023,-0.152,-0.03,0.14,-0.03,11.75,33.75,1.83,98.57,-1.36,-89.99,0.455,0.530,0.541,-0.468
4637584.000000,-0.994,-0.023,-0.150,-0.01,0.03,-0.03,11.75,33.75,1.83,98.57,-1.36,-89.99,0.455,0.530,0.541,-0.468
4637594.000000,-0.994,-0.026,-0.145,-0.01,-0.05,0.10,11.27,34.25,1.50,98.57,-1.36,-89.99,0.455,0.530,0.541,-0.468
4637604.000000,-0.993,-0.024,-0.152,-0.03,0.01,-0.03,11.64,34.29,1.75,98.57,-1.36,-89.99,0.455,0.530,0.541,-0.468
4637614.000000,-1.000,-0.023,-0.149,0.07,-0.03,-0.07,11.46,34.29,1.54,98.57,-1.36,-89.99,0.455,0.530,0.541,-0.468
4637624.000000,-0.997,-0.024,-0.150,-0.01,-0.07,0.08,11.42,34.33,1.33,98.57,-1.36,-89.99,0.455,0.530,0.541,-0.468
4637634.000000,-0.996,-0.023,-0.152,0.07,0.07,-0.03,11.42,34.33,1.33,98.57,-1.36,-89.99,0.455,0.530,0.541,-0.468
4637644.000000,-0.994,-0.024,-0.152,-0.03,0.05,0.01,11.68,34.25,1.54,98.57,-1.36,-89.99,0.455,0.530,0.541,-0.468
4637654.000000,-0.994,-0.023,-0.152,0.11,0.09,0.03,11.46,34.02,1.83,98.57,-1.36,-89.99,0.455,0.530,0.541,-0.468
4637664.000000,-0.997,-0.023,-0.149,0.03,0.07,-0.05,11.79,34.48,1.63,98.57,-1.36,-89.99,0.455,0.530,0.541,-0.468
4637674.000000,-0.997,-0.023,-0.152,-0.01,0.16,0.01,11.92,34.43,1.67,98.57,-1.36,-89.99,0.455,0.530,0.541,-0.468
4637684.000000,-0.997,-0.026,-0.152,-0.07,0.01,0.01,11.92,34.43,1.67,98.57,-1.36,-89.99,0.455,0.530,0.541,-0.468
4637694.000000,-0.997,-0.023,-0.149,0.11,0.07,0.07,12.33,34.38,1.38,98.57,-1.36,-89.99,0.455,0.530,0.541,-0.468
4637704.000000,-0.997,-0.023,-0.152,-0.05,0.03,0.06,11.98,34.38,1.54,98.57,-1.36,-89.99,0.455,0.530,0.541,-0.468
4637714.000000,-0.996,-0.023,-0.152,-0.01,0.01,0.01,12.14,34.79,1.75,98.57,-1.36,-89.99,0.455,0.530,0.541,-0.468
4637724.000000,-0.994,-0.026,-0.150,-0.09,0.07,0.06,12.25,34.25,1.13,98.57,-1.36,-89.99,0.455,0.530,0.541,-0.468
4637734.000000,-0.992,-0.023,-0.151,0.03,-0.13,0.01,12.25,34.25,1.13,98.57,-1.36,-89.99,0.455,0.530,0.541,-0.468
4637744.000000,-0.997,-0.023,-0.149,0.11,-0.07,0.05,12.02,34.52,1.13,98.57,-1.36,-89.99,0.455,0.530,0.541,-0.468
4637754.000000,-0.994,-0.024,-0.150,0.05,0.01,-0.05,11.98,34.38,1.29,98.57,-1.36,-89.99,0.455,0.530,0.541,-0.468
4637764.000000,-0.993,-0.023,-0.152,0.05,0.01,0.03,12.10,34.38,1.33,98.57,-1.36,-89.99,0.455,0.530,0.541,-0.468
4637774.000000,-0.994,-0.023,-0.144,0.01,0.03,-0.07,12.10,34.38,1.33,98.57,-1.36,-90.00,0.455,0.530,0.541,-0.468
4637784.000000,-0.994,-0.026,-0.149,-0.05,-0.01,0.01,12.10,34.38,1.33,98.57,-1.36,-90.00,0.455,0.530,0.541,-0.468
4637794.000000,-0.997,-0.023,-0.149,-0.03,0.14,0.01,12.02,33.88,1.50,98.57,-1.36,-90.00,0.455,0.530,0.541,-0.468
4637804.000000,-0.996,-0.023,-0.153,0.03,0.12,-0.01,12.02,33.88,1.50,98.57,-1.36,-89.99,0.455,0.530,0.541,-0.468
4637814.000000,-0.996,-0.022,-0.148,0.01,0.01,0.10,12.02,33.88,1.50,98.57,-1.36,-90.00,0.455,0.530,0.541,-0.468
4637824.000000,-0.996,-0.024,-0.153,-0.01,-0.01,-0.03,12.29,34.48,1.50,98.57,-1.36,-90.00,0.455,0.530,0.541,-0.468
4637834.000000,-0.997,-0.023,-0.147,0.03,0.05,-0.07,12.52,34.52,1.67,98.57,-1.36,-90.00,0.455,0.530,0.541,-0.468
4637844.000000,-0.997,-0.026,-0.150,-0.01,-0.07,-0.03,12.21,34.29,1.38,98.57,-1.36,-90.00,0.455,0.530,0.541,-0.468
4637854.000000,-0.993,-0.027,-0.152,-0.05,0.01,0.03,11.75,33.98,1.21,98.57,-1.36,-90.00,0.455,0.530,0.541,-0.468
4637864.000000,-0.994,-0.023,-0.148,0.07,0.03,-0.01,11.75,34.14,1.71,98.57,-1.36,-90.00,0.455,0.530,0.541,-0.468
4637874.000000,-0.996,-0.026,-0.148,0.01,0.01,-0.05,11.98,34.38,1.50,98.57,-1.36,-90.00,0.455,0.530,0.541,-0.468
4637884.000000,-0.996,-0.024,-0.149,-0.01,-0.15,-0.01,11.98,34.06,1.42,98.57,-1.36,-90.00,0.455,0.530,0.541,-0.468
4637894.000000,-0.996,-0.022,-0.149,0.07,0.01,-0.05,11.38,33.98,1.42,98.57,-1.36,-90.00,0.455,0.530,0.541,-0.468
4637904.000000,-0.997,-0.027,-0.149,-0.11,-0.03,0.01,11.23,34.14,1.63,98.57,-1.36,-90.00,0.455,0.530,0.541,-0.468
4637914.000000,-0.994,-0.023,-0.148,-0.07,-0.01,0.01,11.46,33.88,1.08,98.57,-1.36,-90.00,0.455,0.530,0.541,-0.468
4637924.000000,-0.994,-0.027,-0.150,0.03,0.09,-0.03,11.42,33.98,1.29,98.57,-1.36,-89.99,0.455,0.530,0.541,-0.468
4637934.000000,-0.997,-0.027,-0.153,-0.01,-0.07,-0.01,11.38,33.98,1.67,98.57,-1.36,-89.99,0.455,0.530,0.541,-0.468
4637944.000000,-0.996,-0.026,-0.153,0.07,-0.01,0.03,11.64,33.83,1.54,98.57,-1.36,-90.00,0.455,0.530,0.541,-0.468
4637954.000000,-0.996,-0.023,-0.149,0.05,0.03,-0.03,10.92,34.14,1.67,98.57,-1.36,-90.00,0.455,0.530,0.541,-0.468
4637964.000000,-0.997,-0.023,-0.149,-0.09,0.05,0.01,11.33,34.29,1.63,98.57,-1.36,-90.00,0.455,0.530,0.541,-0.468
4637974.000000,-0.996,-0.024,-0.150,-0.03,0.01,-0.01,11.38,34.48,1.79,98.57,-1.36,-90.00,0.455,0.530,0.541,-0.468
4637984.000000,-0.997,-0.023,-0.150,-0.09,0.03,0.01,11.14,34.21,1.46,98.57,-1.36,-90.00,0.455,0.530,0.541,-0.468
4637994.000000,-0.996,-0.023,-0.149,-0.05,0.05,0.06,10.73,34.29,1.79,98.57,-1.36,-89.99,0.455,0.530,0.541,-0.468
4638004.000000,-0.997,-0.023,-0.148,0.01,-0.17,0.01,10.88,33.92,1.79,98.57,-1.36,-89.99,0.455,0.530,0.541,-0.468
4638014.000000,-0.997,-0.024,-0.147,-0.01,-0.03,-0.03,11.38,33.75,1.79,98.57,-1.36,-89.99,0.455,0.530,0.541,-0.468
4638024.000000,-0.998,-0.024,-0.149,0.01,-0.03,-0.03,10.92,33.79,1.79,98.57,-1.36,-89.99,0.455,0.530,0.541,-0.468
4638034.000000,-0.996,-0.026,-0.152,-0.03,0.03,-0.07,10.96,33.98,1.38,98.56,-1.36,-89.99,0.455,0.530,0.541,-0.468
4638044.000000,-0.994,-0.026,-0.150,0.01,-0.03,-0.05,11.27,34.21,1.42,98.56,-1.36,-89.99,0.455,0.530,0.541,-0.468
4638054.000000,-0.994,-0.022,-0.150,0.07,0.07,-0.07,11.18,33.92,1.33,98.56,-1.36,-89.99,0.455,0.530,0.541,-0.468
4638064.000000,-0.994,-0.024,-0.150,0.03,-0.05,-0.03,11.23,34.33,1.42,98.56,-1.36,-89.99,0.455,0.530,0.541,-0.468
4638074.000000,-0.996,-0.026,-0.152,0.03,-0.13,-0.03,11.18,34.21,1.46,98.56,-1.36,-89.99,0.455,0.530,0.541,-0.468
4638084.000000,-0.994,-0.023,-0.153,-0.01,0.05,-0.01,11.23,34.33,1.21,98.56,-1.36,-89.99,0.455,0.530,0.541,-0.468
4638094.000000,-0.997,-0.024,-0.149,-0.05,0.03,0.01,11.56,34.71,1.54,98.56,-1.36,-89.99,0.455,0.530,0.541,-0.468
4638104.000000,-0.996,-0.023,-0.148,0.09,0.05,0.01,11.64,34.67,1.71,98.56,-1.36,-89.99,0.455,0.530,0.541,-0.468
4638114.000000,-1.000,-0.022,-0.150,0.03,0.07,0.07,11.33,34.71,1.83,98.56,-1.36,-89.99,0.455,0.530,0.541,-0.468
4638124.000000,-0.997,-0.023,-0.147,0.13,0.09,-0.03,11.18,34.75,1.54,98.56,-1.36,-90.00,0.455,0.530,0.541,-0.468
4638134.000000,-0.994,-0.022,-0.149,0.09,0.01,0.01,11.27,34.98,1.50,98.57,-1.36,-90.00,0.455,0.530,0.541,-0.468
4638144.000000,-0.996,-0.026,-0.152,-0.05,0.09,0.10,11.79,34.21,1.54,98.57,-1.36,-90.00,0.455,0.530,0.541,-0.468
4638154.000000,-0.994,-0.023,-0.147,0.05,0.03,-0.05,11.75,34.43,1.33,98.57,-1.36,-90.00,0.455,0.530,0.541,-0.468
4638164.000000,-0.997,-0.026,-0.152,-0.03,0.07,-0.03,11.56,34.21,1.67,98.57,-1.36,-90.00,0.455,0.530,0.541,-0.468
4638174.000000,-0.997,-0.024,-0.147,-0.05,-0.03,0.01,11.92,34.33,1.38,98.57,-1.36,-90.00,0.455,0.530,0.541,-0.468
4638184.000000,-0.996,-0.023,-0.152,-0.05,0.12,0.03,11.75,34.25,1.54,98.57,-1.36,-90.00,0.455,0.530,0.541,-0.468
4638194.000000,-0.993,-0.024,-0.150,0.01,0.18,0.05,12.14,34.52,1.42,98.57,-1.36,-90.00,0.455,0.530,0.541,-0.468
4638204.000000,-0.997,-0.024,-0.148,-0.07,-0.07,0.03,12.14,34.56,1.83,98.57,-1.36,-90.00,0.455,0.530,0.541,-0.468
4638214.000000,-0.993,-0.024,-0.147,-0.09,-0.03,0.01,12.10,34.56,1.46,98.57,-1.36,-90.00,0.455,0.530,0.541,-0.468
4638224.000000,-0.996,-0.024,-0.152,0.05,0.07,0.05,12.10,34.56,1.71,98.57,-1.36,-90.00,0.455,0.530,0.541,-0.468
4638234.000000,-0.996,-0.023,-0.150,-0.03,0.01,0.03,12.33,34.60,1.63,98.57,-1.36,-90.00,0.455,0.530,0.541,-0.468
4638244.000000,-0.997,-0.024,-0.149,0.01,0.12,-0.03,11.56,34.43,1.46,98.57,-1.36,-90.00,0.455,0.530,0.541,-0.468
4638254.000000,-0.996,-0.024,-0.152,-0.09,0.01,0.04,11.60,34.10,1.75,98.57,-1.36,-90.00,0.455,0.530,0.541,-0.468
4638264.000000,-0.996,-0.022,-0.149,-0.03,0.05,-0.03,11.23,34.43,1.79,98.57,-1.36,-89.99,0.455,0.530,0.541,-0.468
4638274.000000,-0.996,-0.026,-0.152,-0.01,0.01,0.01,11.64,34.21,1.42,98.57,-1.36,-89.99,0.455,0.530,0.541,-0.468
4638284.000000,-0.993,-0.024,-0.150,-0.01,-0.03,0.05,11.46,34.60,1.29,98.57,-1.36,-89.99,0.455,0.530,0.541,-0.468
4638294.000000,-0.998,-0.024,-0.150,-0.07,0.05,0.03,10.96,34.29,1.50,98.57,-1.36,-89.99,0.455,0.530,0.541,-0.468
4638304.000000,-0.994,-0.026,-0.147,-0.05,0.07,0.01,10.64,34.10,1.71,98.57,-1.36,-89.99,0.455,0.530,0.541,-0.468
4638314.000000,-0.994,-0.024,-0.150,-0.05,0.12,-0.01,10.96,34.43,1.46,98.57,-1.36,-89.99,0.455,0.530,0.541,-0.468
4638324.000000,-0.994,-0.024,-0.149,-0.09,-0.07,-0.11,10.88,34.25,1.83,98.57,-1.36,-89.99,0.455,0.530,0.541,-0.468
4638334.000000,-0.996,-0.023,-0.147,0.03,0.03,0.01,11.10,34.10,1.50,98.57,-1.36,-89.99,0.455,0.530,0.541,-0.468
4638344.000000,-0.992,-0.023,-0.148,-0.01,0.01,-0.03,11.46,34.29,1.54,98.57,-1.36,-89.99,0.455,0.530,0.541,-0.468
4638354.000000,-0.998,-0.028,-0.149,0.05,0.05,0.07,11.79,34.14,1.25,98.57,-1.36,-89.99,0.455,0.530,0.541,-0.468
4638364.000000,-0.996,-0.023,-0.145,0.05,-0.05,-0.05,12.06,34.21,1.50,98.57,-1.36,-89.99,0.455,0.530,0.541,-0.468
4638374.000000,-0.998,-0.023,-0.150,0.01,0.03,-0.01,11.83,34.02,1.63,98.57,-1.36,-89.99,0.455,0.530,0.541,-0.468
4638384.000000,-1.000,-0.023,-0.150,0.07,0.12,-0.03,11.38,34.38,1.50,98.57,-1.36,-89.99,0.455,0.530,0.541,-0.468
4638394.000000,-0.996,-0.023,-0.150,-0.01,-0.03,0.10,12.33,33.75,1.46,98.57,-1.36,-89.99,0.455,0.530,0.541,-0.468
4638404.000000,-0.996,-0.024,-0.153,-0.05,-0.09,-0.01,12.38,33.60,1.50,98.57,-1.36,-89.99,0.455,0.530,0.541,-0.468
4638414.000000,-0.994,-0.024,-0.152,0.03,-0.03,0.01,12.14,33.29,1.38,98.57,-1.36,-89.99,0.455,0.530,0.541,-0.468
4638424.000000,-0.996,-0.024,-0.149,-0.01,0.12,-0.03,12.25,33.23,1.58,98.57,-1.36,-89.99,0.455,0.530,0.541,-0.468
4638434.000000,-0.997,-0.027,-0.152,-0.03,-0.03,-0.07,11.98,33.42,1.29,98.57,-1.36,-89.99,0.455,0.530,0.541,-0.468
4638444.000000,-0.994,-0.024,-0.148,0.03,-0.07,-0.03,12.48,34.29,1.63,98.57,-1.36,-89.99,0.455,0.530,0.541,-0.468
4638454.000000,-0.996,-0.026,-0.148,-0.03,0.12,0.06,12.56,34.14,1.29,98.57,-1.36,-89.99,0.455,0.530,0.541,-0.468
4638464.000000,-0.996,-0.023,-0.150,-0.01,-0.01,0.05,12.67,34.60,1.04,98.57,-1.36,-89.99,0.455,0.530,0.541,-0.468
4638474.000000,-0.997,-0.023,-0.150,0.11,-0.05,-0.05,12.21,34.33,1.46,98.57,-1.36,-89.99,0.455,0.530,0.541,-0.468
4638484.000000,-0.992,-0.024,-0.149,0.05,0.05,-0.05,12.52,34.06,1.25,98.57,-1.36,-90.00,0.455,0.530,0.541,-0.468
4638494.000000,-0.994,-0.024,-0.150,0.13,-0.01,0.01,12.33,34.06,1.25,98.57,-1.36,-90.00,0.455,0.530,0.541,-0.468
4638504.000000,-0.997,-0.022,-0.150,-0.01,-0.07,-0.01,12.38,34.25,1.79,98.56,-1.36,-90.00,0.455,0.530,0.541,-0.468
4638514.000000,-0.997,-0.024,-0.149,-0.01,-0.09,-0.05,12.33,34.52,1.96,98.56,-1.36,-90.00,0.455,0.530,0.541,-0.468
4638524.000000,-0.997,-0.023,-0.149,0.01,0.09,-0.09,12.43,34.52,2.04,98.56,-1.36,-90.00,0.455,0.530,0.541,-0.468
4638534.000000,-0.996,-0.024,-0.149,0.01,-0.11,-0.01,12.52,34.60,1.67,98.56,-1.36,-90.00,0.455,0.530,0.541,-0.468
4638544.000000,-0.997,-0.026,-0.147,0.05,-0.01,-0.01,12.43,33.79,1.46,98.56,-1.36,-90.00,0.455,0.530,0.541,-0.468
4638554.000000,-0.994,-0.026,-0.152,-0.03,-0.09,0.05,12.48,34.10,0.92,98.56,-1.36,-90.00,0.455,0.530,0.541,-0.468
4638564.000000,-0.998,-0.024,-0.149,-0.01,0.01,0.05,12.43,33.83,1.38,98.56,-1.36,-90.00,0.455,0.530,0.541,-0.468
4638574.000000,-0.993,-0.024,-0.148,0.03,0.03,-0.01,12.38,33.60,1.33,98.56,-1.36,-90.00,0.455,0.530,0.541,-0.468
4638584.000000,-0.996,-0.024,-0.150,-0.05,0.07,0.01,12.29,33.83,1.42,98.56,-1.36,-90.00,0.455,0.530,0.541,-0.468
4638594.000000,-0.996,-0.023,-0.152,-0.09,0.14,0.01,11.00,34.75,1.46,98.56,-1.36,-90.00,0.455,0.530,0.541,-0.468
4638604.000000,-0.994,-0.024,-0.150,-0.07,0.05,-0.01,11.14,35.43,1.79,98.56,-1.36,-90.00,0.455,0.530,0.541,-0.468
4638614.000000,-0.997,-0.022,-0.150,-0.03,-0.01,0.12,11.38,35.21,2.04,98.56,-1.36,-90.00,0.455,0.530,0.541,-0.468
4638624.000000,-0.994,-0.023,-0.154,0.03,0.03,-0.01,11.18,35.13,1.96,98.56,-1.36,-90.00,0.455,0.530,0.541,-0.468
4638634.000000,-0.994,-0.026,-0.152,0.05,0.14,-0.01,10.81,35.17,1.79,98.56,-1.36,-90.00,0.455,0.530,0.541,-0.468
4638644.000000,-0.996,-0.022,-0.153,0.03,0.09,0.01,10.92,34.29,1.54,98.56,-1.36,-90.00,0.455,0.530,0.541,-0.468
4638654.000000,-0.997,-0.022,-0.149,0.03,-0.03,0.01,10.46,34.10,1.58,98.57,-1.36,-90.00,0.455,0.530,0.541,-0.468
4638664.000000,-0.994,-0.026,-0.152,-0.09,-0.13,0.01,11.04,34.06,1.50,98.57,-1.36,-90.00,0.455,0.530,0.541,-0.468
4638674.000000,-0.998,-0.023,-0.150,0.11,-0.03,0.01,10.88,34.10,1.96,98.56,-1.36,-90.00,0.455,0.530,0.541,-0.468
4638684.000000,-0.996,-0.023,-0.148,-0.01,0.07,-0.03,10.58,33.98,1.63,98.56,-1.36,-90.00,0.455,0.530,0.541,-0.468
4638694.000000,-0.998,-0.023,-0.149,-0.05,-0.01,-0.03,11.42,34.06,1.50,98.56,-1.36,-90.00,0.455,0.530,0.541,-0.468
4638704.000000,-0.994,-0.023,-0.147,-0.03,-0.09,0.01,11.33,34.10,1.79,98.56,-1.36,-90.00,0.455,0.530,0.541,-0.468
4638714.000000,-0.996,-0.026,-0.150,-0.11,-0.01,-0.01,11.14,34.14,1.50,98.56,-1.36,-90.00,0.455,0.530,0.541,-0.468
4638724.000000,-0.996,-0.026,-0.150,-0.01,0.09,0.03,11.33,34.06,1.67,98.56,-1.36,-90.00,0.455,0.530,0.541,-0.468
4638734.000000,-0.997,-0.027,-0.153,-0.07,-0.03,0.06,11.04,34.14,1.25,98.56,-1.36,-90.00,0.455,0.530,0.541,-0.468
4638744.000000,-0.998,-0.022,-0.150,0.05,0.03,-0.05,11.98,33.92,1.63,98.56,-1.36,-89.99,0.455,0.530,0.541,-0.468
4638754.000000,-0.993,-0.026,-0.153,0.11,0.03,0.01,11.98,34.10,1.88,98.56,-1.36,-90.00,0.455,0.530,0.541,-0.468
4638764.000000,-0.996,-0.024,-0.150,-0.05,-0.09,0.08,11.75,33.68,1.42,98.56,-1.36,-90.00,0.455,0.530,0.541,-0.468
4638774.000000,-0.997,-0.022,-0.152,-0.03,-0.05,0.03,12.10,33.75,1.67,98.56,-1.36,-90.00,0.455,0.530,0.541,-0.468
4638784.000000,-0.994,-0.026,-0.150,-0.07,0.03,0.03,11.68,34.33,1.67,98.56,-1.36,-90.00,0.455,0.530,0.541,-0.468
4638794.000000,-0.997,-0.023,-0.145,0.15,0.03,0.03,11.27,34.21,1.54,98.56,-1.36,-90.00,0.455,0.530,0.541,-0.468
4638804.000000,-0.997,-0.027,-0.149,0.03,0.09,0.01,11.27,33.98,1.50,98.56,-1.36,-90.00,0.455,0.530,0.541,-0.468
4638814.000000,-0.996,-0.022,-0.152,-0.01,0.18,0.01,11.42,34.14,1.67,98.56,-1.36,-90.00,0.455,0.530,0.541,-0.468
4638824.000000,-0.996,-0.022,-0.149,0.01,0.01,-0.03,11.27,33.83,2.04,98.56,-1.36,-90.00,0.455,0.530,0.541,-0.468
4638834.000000,-0.993,-0.026,-0.153,-0.07,0.03,0.06,10.92,33.60,1.88,98.56,-1.36,-90.00,0.455,0.530,0.541,-0.468
4638844.000000,-0.993,-0.023,-0.149,-0.03,-0.01,-0.05,11.46,34.33,1.50,98.56,-1.36,-90.00,0.455,0.530,0.541,-0.468
4638854.000000,-0.996,-0.024,-0.152,-0.01,0.07,-0.03,11.56,34.14,1.42,98.56,-1.36,-90.00,0.455,0.530,0.541,-0.468
4638864.000000,-0.997,-0.026,-0.152,-0.05,-0.05,-0.07,11.64,34.48,1.29,98.56,-1.36,-90.00,0.455,0.530,0.541,-0.468
4638874.000000,-0.994,-0.023,-0.153,-0.03,0.03,0.03,11.42,34.48,1.21,98.56,-1.36,-90.00,0.455,0.530,0.541,-0.468
4638884.000000,-0.998,-0.024,-0.150,-0.11,-0.03,-0.03,11.56,34.25,1.42,98.56,-1.36,-90.00,0.455,0.530,0.541,-0.468
4638894.000000,-0.997,-0.024,-0.153,-0.07,-0.07,0.08,12.10,34.33,1.38,98.56,-1.36,-89.99,0.455,0.530,0.541,-0.468
4638904.000000,-0.994,-0.023,-0.150,0.05,0.12,-0.03,12.29,33.56,1.25,98.56,-1.36,-89.99,0.455,0.530,0.541,-0.468
4638914.000000,-0.994,-0.023,-0.149,-0.07,0.07,-0.05,11.83,33.60,1.50,98.56,-1.36,-89.99,0.455,0.530,0.541,-0.468
4638924.000000,-0.994,-0.026,-0.149,-0.03,0.05,0.01,12.02,33.79,1.42,98.56,-1.36,-89.99,0.455,0.530,0.541,-0.468
4638934.000000,-0.994,-0.023,-0.149,-0.05,0.03,0.08,11.88,33.98,1.38,98.56,-1.36,-89.99,0.455,0.530,0.541,-0.468
4638944.000000,-0.997,-0.026,-0.149,-0.05,0.01,0.06,11.88,33.83,1.67,98.56,-1.36,-89.99,0.455,0.530,0.541,-0.468
4638954.000000,-0.993,-0.026,-0.148,-0.01,-0.13,0.03,12.02,34.06,1.33,98.56,-1.36,-89.99,0.455,0.530,0.541,-0.468
4638964.000000,-0.996,-0.024,-0.149,0.01,0.05,0.05,11.60,33.98,1.33,98.56,-1.35,-89.99,0.455,0.530,0.541,-0.468
4638974.000000,-0.994,-0.022,-0.145,0.01,0.09,-0.03,12.10,34.43,1.67,98.56,-1.35,-89.99,0.455,0.530,0.541,-0.468
4638984.000000,-0.997,-0.024,-0.150,0.03,-0.11,-0.07,11.42,34.25,1.63,98.56,-1.35,-89.99,0.455,0.530,0.541,-0.468
4638994.000000,-0.997,-0.023,-0.152,0.03,0.05,0.05,12.10,34.21,1.63,98.56,-1.35,-89.99,0.455,0.530,0.541,-0.468
4639004.000000,-0.996,-0.027,-0.147,-0.05,0.05,-0.05,11.88,34.25,1.67,98.56,-1.35,-89.99,0.455,0.530,0.541,-0.468
4639014.000000,-0.994,-0.024,-0.147,0.01,0.20,-0.01,11.56,34.10,1.67,98.56,-1.35,-89.99,0.455,0.530,0.541,-0.468
4639024.000000,-0.994,-0.024,-0.152,0.03,-0.07,0.05,11.60,34.38,1.58,98.56,-1.36,-89.99,0.455,0.530,0.541,-0.468
4639034.000000,-0.996,-0.023,-0.145,0.01,0.03,-0.01,11.64,34.10,1.58,98.56,-1.36,-89.99,0.455,0.530,0.541,-0.468
4639044.000000,-0.993,-0.023,-0.152,-0.07,0.03,-0.07,10.81,33.88,1.54,98.56,-1.35,-89.99,0.455,0.530,0.541,-0.468
4639054.000000,-0.996,-0.023,-0.149,-0.03,-0.13,0.01,10.73,33.92,1.50,98.56,-1.35,-89.99,0.455,0.530,0.541,-0.468
4639064.000000,-0.997,-0.024,-0.150,-0.11,0.01,0.10,11.10,33.92,1.54,98.56,-1.35,-89.99,0.455,0.530,0.541,-0.468
4639074.000000,-0.994,-0.022,-0.150,0.09,-0.01,-0.03,10.54,34.02,1.50,98.56,-1.35,-89.99,0.455,0.530,0.541,-0.468
4639084.000000,-0.996,-0.024,-0.150,-0.01,0.01,0.01,11.14,34.14,1.58,98.56,-1.35,-89.99,0.455,0.530,0.541,-0.468
4639094.000000,-0.994,-0.024,-0.150,0.03,-0.01,0.01,11.14,34.71,1.58,98.56,-1.35,-89.99,0.455,0.530,0.541,-0.468
4639104.000000,-0.996,-0.022,-0.149,-0.01,0.07,0.01,11.10,34.56,1.42,98.56,-1.35,-89.99,0.455,0.530,0.541,-0.468
4639114.000000,-0.994,-0.026,-0.149,-0.03,0.16,-0.01,11.27,34.52,1.58,98.56,-1.35,-89.99,0.455,0.530,0.541,-0.468
4639124.000000,-0.996,-0.023,-0.154,0.01,-0.05,-0.05,10.96,34.60,1.58,98.56,-1.35,-89.99,0.455,0.530,0.541,-0.468
4639134.000000,-0.996,-0.028,-0.150,-0.07,0.01,0.01,11.38,34.56,1.75,98.56,-1.35,-89.99,0.455,0.530,0.541,-0.468
4639144.000000,-0.996,-0.024,-0.145,-0.03,-0.13,0.05,11.88,33.92,1.46,98.56,-1.35,-89.99,0.455,0.530,0.541,-0.468
4639154.000000,-0.998,-0.023,-0.148,-0.05,-0.01,-0.05,11.46,34.10,1.71,98.56,-1.35,-89.99,0.455,0.530,0.541,-0.468
4639164.000000,-0.994,-0.024,-0.150,-0.03,0.05,-0.03,11.50,33.83,1.33,98.56,-1.35,-89.99,0.455,0.530,0.541,-0.468
4639174.000000,-0.996,-0.022,-0.152,-0.01,0.09,0.05,11.23,33.92,1.83,98.56,-1.35,-89.99,0.455,0.530,0.541,-0.468
4639184.000000,-0.997,-0.024,-0.150,0.09,0.01,-0.01,11.79,34.21,1.75,98.56,-1.35,-89.99,0.455,0.530,0.541,-0.468
4639194.000000,-0.996,-0.026,-0.153,-0.01,-0.07,-0.05,11.68,33.98,1.46,98.56,-1.35,-89.99,0.455,0.530,0.541,-0.468
4639204.000000,-0.996,-0.022,-0.152,-0.11,0.05,-0.01,11.60,34.21,1.75,98.56,-1.36,-89.99,0.455,0.530,0.541,-0.468
4639214.000000,-0.997,-0.026,-0.150,-0.03,-0.03,-0.03,11.75,33.75,1.08,98.56,-1.36,-89.99,0.455,0.530,0.541,-0.468
4639224.000000,-0.996,-0.024,-0.150,0.07,0.12,0.01,12.06,34.06,1.67,98.56,-1.36,-89.99,0.455,0.530,0.541,-0.468
4639234.000000,-0.994,-0.022,-0.148,-0.01,-0.05,0.01,11.79,33.68,1.67,98.56,-1.36,-89.99,0.455,0.530,0.541,-0.468
4639244.000000,-0.996,-0.023,-0.149,0.03,0.05,0.05,11.88,33.60,1.71,98.56,-1.36,-89.99,0.455,0.530,0.541,-0.468
4639254.000000,-0.994,-0.024,-0.152,0.03,0.09,-0.01,11.46,33.46,1.38,98.56,-1.36,-89.99,0.455,0.530,0.541,-0.468
4639264.000000,-0.994,-0.026,-0.149,0.05,0.12,-0.03,11.42,33.29,1.33,98.56,-1.36,-89.99,0.455,0.530,0.541,-0.468
4639274.000000,-0.996,-0.022,-0.148,0.03,-0.09,-0.01,11.60,33.18,1.42,98.56,-1.36,-89.99,0.455,0.530,0.541,-0.468
4639284.000000,-0.996,-0.026,-0.153,-0.07,0.01,-0.01,11.64,33.52,1.58,98.56,-1.36,-89.99,0.455,0.530,0.541,-0.468
4639294.000000,-0.996,-0.026,-0.150,0.01,0.09,0.01,11.64,33.52,1.58,98.56,-1.36,-89.99,0.455,0.530,0.541,-0.468
4639304.000000,-0.998,-0.026,-0.152,-0.03,0.18,0.01,11.18,34.21,1.29,98.56,-1.36,-89.99,0.455,0.530,0.541,-0.468
4639314.000000,-0.994,-0.024,-0.152,0.03,-0.03,-0.01,11.50,34.56,1.92,98.56,-1.36,-89.99,0.455,0.530,0.541,-0.468
4639324.000000,-0.996,-0.026,-0.149,-0.17,0.01,0.08,11.33,34.67,2.08,98.56,-1.36,-89.99,0.455,0.530,0.541,-0.468
4639334.000000,-0.993,-0.024,-0.150,0.01,-0.01,-0.09,11.56,34.33,1.46,98.56,-1.36,-89.99,0.455,0.530,0.541,-0.468
4639344.000000,-0.993,-0.023,-0.150,0.01,-0.01,0.01,11.56,34.33,1.46,98.56,-1.36,-89.99,0.455,0.530,0.541,-0.468
4639354.000000,-0.992,-0.022,-0.145,-0.01,-0.01,0.03,12.06,34.10,1.25,98.56,-1.36,-89.99,0.455,0.530,0.541,-0.468
4639364.000000,-0.993,-0.024,-0.152,-0.01,-0.07,-0.03,12.14,34.25,1.46,98.56,-1.36,-89.99,0.455,0.530,0.541,-0.468
4639374.000000,-0.994,-0.023,-0.148,-0.03,0.07,-0.05,12.33,34.06,1.38,98.56,-1.36,-89.99,0.455,0.530,0.541,-0.468
4639384.000000,-0.994,-0.021,-0.148,0.01,0.12,-0.03,12.33,34.38,1.42,98.56,-1.36,-89.99,0.455,0.530,0.541,-0.468
4639394.000000,-0.998,-0.024,-0.149,-0.05,-0.03,-0.01,12.33,34.38,1.42,98.56,-1.36,-89.99,0.455,0.530,0.541,-0.468
4639404.000000,-0.996,-0.023,-0.154,-0.01,0.03,-0.01,11.68,34.79,1.67,98.56,-1.36,-89.99,0.455,0.530,0.541,-0.468
4639414.000000,-0.996,-0.023,-0.148,0.05,-0.05,-0.01,12.02,34.43,1.79,98.56,-1.36,-89.99,0.455,0.530,0.541,-0.468
4639424.000000,-0.997,-0.027,-0.149,-0.01,0.01,-0.07,11.75,34.48,1.67,98.56,-1.36,-89.99,0.455,0.530,0.541,-0.468
4639434.000000,-0.994,-0.022,-0.149,0.09,-0.05,-0.03,11.92,34.93,1.38,98.56,-1.36,-89.99,0.455,0.530,0.541,-0.468
4639444.000000,-0.996,-0.022,-0.152,-0.09,-0.05,0.08,11.92,34.93,1.38,98.56,-1.36,-89.99,0.455,0.530,0.541,-0.468
4639454.000000,-0.994,-0.023,-0.150,-0.03,-0.01,-0.11,12.02,34.89,1.67,98.56,-1.36,-89.99,0.455,0.530,0.541,-0.468
4639464.000000,-0.996,-0.024,-0.149,-0.07,0.05,0.01,12.14,34.79,1.42,98.56,-1.36,-89.99,0.455,0.530,0.541,-0.468
4639474.000000,-0.996,-0.023,-0.149,0.09,0.05,0.05,12.02,34.93,1.21,98.56,-1.36,-89.99,0.455,0.530,0.541,-0.468
4639484.000000,-0.997,-0.021,-0.150,0.07,0.05,0.07,11.79,34.56,1.50,98.56,-1.36,-89.99,0.455,0.530,0.541,-0.468
4639494.000000,-0.997,-0.024,-0.149,0.07,0.03,0.05,11.79,34.56,1.50,98.56,-1.36,-89.99,0.455,0.530,0.541,-0.468
4639504.000000,-0.997,-0.024,-0.150,0.07,0.07,-0.01,12.33,34.25,1.67,98.56,-1.35,-89.99,0.455,0.530,0.541,-0.468
4639514.000000,-0.996,-0.024,-0.152,-0.09,0.01,-0.05,12.29,34.38,1.58,98.56,-1.35,-89.99,0.455,0.530,0.541,-0.468
4639524.000000,-0.994,-0.023,-0.149,-0.01,-0.05,-0.01,12.52,34.29,1.42,98.56,-1.36,-89.99,0.455,0.530,0.541,-0.468
4639534.000000,-0.994,-0.024,-0.152,-0.09,-0.15,-0.05,12.14,34.71,1.46,98.56,-1.36,-89.99,0.455,0.530,0.541,-0.468
4639544.000000,-0.994,-0.023,-0.149,-0.01,0.01,0.08,12.14,34.71,1.46,98.56,-1.36,-89.99,0.455,0.530,0.541,-0.468
4639554.000000,-0.997,-0.023,-0.149,-0.03,-0.09,-0.07,12.60,33.92,1.58,98.56,-1.35,-89.99,0.455,0.530,0.541,-0.468
4639564.000000,-0.994,-0.024,-0.150,-0.03,0.05,-0.05,12.67,34.14,1.21,98.56,-1.36,-89.99,0.455,0.530,0.541,-0.468
4639574.000000,-0.996,-0.024,-0.152,0.03,0.01,-0.07,12.48,34.02,1.79,98.56,-1.36,-89.99,0.455,0.530,0.541,-0.468
4639584.000000,-0.996,-0.024,-0.150,-0.05,-0.03,-0.07,12.98,34.33,1.42,98.56,-1.36,-89.99,0.455,0.530,0.541,-0.468
4639594.000000,-0.994,-0.026,-0.150,0.07,0.18,-0.01,12.98,34.33,1.42,98.56,-1.36,-89.99,0.455,0.530,0.541,-0.468
4639604.000000,-0.996,-0.028,-0.148,-0.07,-0.01,0.01,12.60,33.75,1.58,98.56,-1.36,-89.99,0.455,0.530,0.541,-0.468
4639614.000000,-0.998,-0.022,-0.148,0.07,-0.11,0.01,12.52,33.88,1.54,98.56,-1.36,-89.99,0.455,0.530,0.541,-0.468
4639624.000000,-0.996,-0.026,-0.148,-0.05,0.01,-0.03,12.60,33.92,1.50,98.56,-1.36,-89.99,0.455,0.530,0.541,-0.468
4639634.000000,-0.996,-0.027,-0.149,0.13,-0.03,0.03,12.14,33.56,1.88,98.56,-1.36,-89.99,0.455,0.530,0.541,-0.468
4639644.000000,-0.998,-0.027,-0.149,0.01,-0.07,-0.11,12.14,33.56,1.88,98.56,-1.36,-89.99,0.455,0.530,0.541,-0.468
4639654.000000,-0.996,-0.022,-0.149,-0.05,0.09,0.03,12.06,33.52,1.38,98.56,-1.36,-89.99,0.455,0.530,0.541,-0.468
4639664.000000,-0.997,-0.022,-0.149,0.05,-0.11,-0.05,12.06,33.52,1.38,98.56,-1.36,-89.99,0.455,0.530,0.541,-0.468
4639674.000000,-0.997,-0.026,-0.147,0.05,-0.01,0.05,12.06,33.52,1.38,98.56,-1.36,-89.99,0.455,0.530,0.541,-0.468
4639684.000000,-0.996,-0.024,-0.150,-0.01,-0.03,0.01,12.06,33.52,1.38,98.56,-1.36,-89.99,0.455,0.530,0.541,-0.468
4639694.000000,-0.994,-0.024,-0.149,-0.03,-0.07,0.05,11.98,32.88,1.17,98.56,-1.36,-89.99,0.455,0.530,0.541,-0.468
4639704.000000,-0.994,-0.023,-0.150,0.03,0.05,-0.11,12.33,34.21,1.42,98.56,-1.36,-89.99,0.455,0.530,0.541,-0.468
4639714.000000,-0.998,-0.023,-0.149,-0.11,0.07,0.10,12.75,34.25,1.50,98.56,-1.36,-89.99,0.455,0.530,0.541,-0.468
4639724.000000,-0.993,-0.024,-0.152,0.05,0.07,0.03,12.43,34.25,1.58,98.56,-1.36,-89.99,0.455,0.530,0.541,-0.468
4639734.000000,-0.992,-0.026,-0.148,-0.03,0.03,-0.07,12.83,34.33,1.50,98.56,-1.36,-89.99,0.455,0.530,0.541,-0.468
4639744.000000,-0.994,-0.026,-0.150,0.03,-0.03,-0.01,12.25,34.14,1.50,98.56,-1.36,-89.99,0.455,0.530,0.541,-0.468
4639754.000000,-0.994,-0.022,-0.150,0.03,0.03,0.03,12.52,33.92,1.38,98.56,-1.36,-89.99,0.455,0.530,0.541,-0.468
4639764.000000,-0.997,-0.023,-0.150,0.03,0.01,0.01,12.29,34.21,1.54,98.56,-1.36,-89.99,0.455,0.530,0.541,-0.468
4639774.000000,-0.994,-0.023,-0.153,0.01,-0.01,0.05,12.89,33.56,1.29,98.56,-1.36,-89.99,0.455,0.530,0.541,-0.468
4639784.000000,-0.996,-0.024,-0.150,-0.03,-0.07,0.01,12.71,34.06,1.63,98.56,-1.36,-89.99,0.455,0.530,0.541,-0.468
4639794.000000,-0.994,-0.022,-0.149,-0.05,0.05,-0.09,12.60,33.79,1.33,98.56,-1.36,-89.99,0.455,0.530,0.541,-0.468
4639804.000000,-0.996,-0.026,-0.149,-0.01,-0.13,-0.03,12.38,34.25,1.38,98.56,-1.36,-89.99,0.455,0.530,0.541,-0.468
4639814.000000,-0.996,-0.023,-0.149,-0.09,0.05,-0.07,13.02,34.21,1.42,98.55,-1.36,-89.99,0.455,0.530,0.541,-0.468
4639824.000000,-0.998,-0.023,-0.152,-0.07,0.03,0.01,12.79,33.60,1.29,98.55,-1.36,-89.99,0.455,0.530,0.541,-0.468
4639835.000000,-0.998,-0.022,-0.152,-0.09,0.03,-0.01,12.79,34.10,1.83,98.55,-1.36,-89.99,0.455,0.530,0.541,-0.468
4639844.000000,-0.996,-0.023,-0.148,0.09,-0.01,0.01,12.48,34.14,1.75,98.55,-1.36,-89.99,0.455,0.530,0.541,-0.468
4639854.000000,-0.996,-0.026,-0.149,0.07,0.18,0.05,12.93,34.67,1.33,98.55,-1.36,-89.99,0.455,0.530,0.541,-0.468
4639864.000000,-0.996,-0.022,-0.149,0.01,0.05,-0.13,12.67,34.60,2.08,98.56,-1.36,-89.99,0.455,0.530,0.541,-0.468
4639874.000000,-0.997,-0.024,-0.149,-0.07,0.07,-0.01,12.75,34.48,1.58,98.56,-1.36,-89.99,0.455,0.530,0.541,-0.468
4639884.000000,-0.994,-0.022,-0.148,0.01,0.01,-0.03,12.93,34.83,2.00,98.56,-1.36,-89.99,0.455,0.530,0.541,-0.468
4639894.000000,-0.996,-0.023,-0.149,0.05,-0.09,-0.07,12.83,34.71,1.54,98.56,-1.36,-89.99,0.455,0.530,0.541,-0.468
4639904.000000,-0.996,-0.023,-0.152,-0.01,0.03,0.01,11.46,33.83,1.42,98.56,-1.36,-89.99,0.455,0.530,0.541,-0.468
4639915.000000,-0.994,-0.019,-0.150,-0.01,-0.01,0.08,10.92,33.79,1.46,98.56,-1.36,-89.99,0.455,0.530,0.541,-0.468
4639925.000000,-0.993,-0.022,-0.150,-0.03,0.09,-0.03,11.04,33.98,1.46,98.56,-1.36,-89.99,0.455,0.530,0.541,-0.468
4639935.000000,-0.996,-0.023,-0.154,-0.03,0.01,0.01,11.10,34.14,1.71,98.56,-1.36,-89.99,0.455,0.530,0.541,-0.468
4639945.000000,-0.996,-0.023,-0.150,-0.03,-0.05,-0.01,11.14,34.02,1.88,98.56,-1.36,-89.99,0.455,0.530,0.541,-0.468
4639955.000000,-0.994,-0.023,-0.153,-0.09,0.09,0.01,11.56,34.75,1.54,98.56,-1.36,-89.99,0.455,0.530,0.541,-0.468
4639965.000000,-0.996,-0.023,-0.150,-0.03,0.05,-0.05,11.60,34.52,1.83,98.56,-1.36,-89.99,0.455,0.530,0.541,-0.468
4639975.000000,-0.996,-0.026,-0.148,-0.01,0.09,0.10,11.60,34.52,1.67,98.56,-1.36,-89.99,0.455,0.530,0.541,-0.468
4639985.000000,-0.994,-0.024,-0.154,0.01,-0.01,0.05,11.60,34.75,1.54,98.56,-1.36,-89.99,0.455,0.530,0.541,-0.468
4639995.000000,-0.997,-0.024,-0.148,-0.05,0.05,-0.03,11.64,34.38,1.54,98.56,-1.36,-89.99,0.455,0.530,0.541,-0.468
4640005.000000,-0.998,-0.023,-0.152,0.09,-0.03,0.05,11.75,34.02,1.71,98.56,-1.36,-89.99,0.455,0.530,0.541,-0.468
4640015.000000,-0.996,-0.024,-0.149,-0.13,0.05,0.08,11.75,33.88,1.83,98.56,-1.36,-89.99,0.455,0.530,0.541,-0.468
4640025.000000,-0.996,-0.023,-0.149,-0.01,0.05,-0.01,12.21,33.83,1.38,98.56,-1.36,-89.99,0.455,0.530,0.541,-0.468
4640035.000000,-0.996,-0.024,-0.149,-0.01,0.01,0.01,11.83,33.79,1.25,98.56,-1.36,-89.99,0.455,0.530,0.541,-0.468
4640045.000000,-0.997,-0.024,-0.149,0.07,0.09,0.03,12.02,33.92,1.46,98.56,-1.36,-89.99,0.455,0.530,0.541,-0.468
4640055.000000,-0.996,-0.026,-0.150,0.03,-0.03,-0.05,11.56,34.56,1.71,98.56,-1.36,-89.99,0.455,0.530,0.541,-0.468
4640065.000000,-0.996,-0.024,-0.149,-0.07,0.09,0.06,11.64,34.93,1.79,98.56,-1.36,-89.99,0.455,0.530,0.541,-0.468
4640075.000000,-0.996,-0.023,-0.150,-0.05,0.05,-0.07,11.88,34.75,1.54,98.56,-1.36,-89.99,0.455,0.530,0.541,-0.468
4640085.000000,-0.996,-0.022,-0.150,0.03,0.01,-0.07,11.56,34.83,1.71,98.56,-1.36,-89.99,0.455,0.530,0.541,-0.468
4640095.000000,-0.997,-0.024,-0.152,0.01,0.05,-0.05,11.98,35.13,2.13,98.56,-1.36,-89.99,0.455,0.530,0.541,-0.468
4640105.000000,-0.996,-0.026,-0.149,0.01,0.05,0.03,12.38,34.14,1.29,98.56,-1.36,-89.99,0.455,0.530,0.541,-0.468
4640115.000000,-0.994,-0.024,-0.150,-0.03,-0.07,-0.03,12.43,34.10,1.33,98.56,-1.36,-89.99,0.455,0.530,0.541,-0.468
4640125.000000,-0.997,-0.023,-0.149,-0.07,-0.01,-0.01,12.25,33.92,1.50,98.56,-1.36,-89.99,0.455,0.530,0.541,-0.468
4640135.000000,-0.994,-0.027,-0.150,0.03,0.03,0.03,12.29,34.25,1.54,98.56,-1.36,-89.99,0.455,0.530,0.541,-0.468
4640145.000000,-0.994,-0.022,-0.152,-0.01,0.09,0.01,12.56,34.02,1.21,98.56,-1.36,-89.99,0.455,0.530,0.541,-0.468
4640155.000000,-0.996,-0.022,-0.150,-0.07,-0.01,-0.07,11.50,34.02,1.38,98.56,-1.36,-89.99,0.455,0.530,0.541,-0.468
4640165.000000,-0.993,-0.023,-0.154,0.07,-0.07,0.07,11.04,33.88,1.46,98.56,-1.36,-89.99,0.455,0.530,0.541,-0.468
4640175.000000,-0.997,-0.026,-0.149,0.01,0.01,-0.07,11.38,33.83,1.54,98.56,-1.36,-89.99,0.455,0.530,0.541,-0.468
4640185.000000,-0.996,-0.023,-0.148,0.03,0.03,0.03,11.79,34.10,1.33,98.56,-1.36,-89.99,0.455,0.530,0.541,-0.468
4640195.000000,-0.996,-0.023,-0.150,0.03,0.14,-0.01,11.56,33.79,1.38,98.56,-1.36,-89.99,0.455,0.530,0.541,-0.468
4640205.000000,-0.996,-0.024,-0.149,-0.05,0.07,-0.03,12.25,33.88,1.42,98.56,-1.36,-89.99,0.455,0.530,0.541,-0.468
4640215.000000,-0.993,-0.023,-0.150,0.03,-0.01,-0.03,12.02,33.68,1.58,98.56,-1.36,-89.99,0.455,0.530,0.541,-0.468
4640225.000000,-0.996,-0.023,-0.153,0.05,0.05,-0.01,12.10,33.75,1.54,98.56,-1.36,-89.99,0.455,0.530,0.541,-0.468
4640235.000000,-0.997,-0.026,-0.153,0.03,-0.01,-0.03,11.92,33.38,1.00,98.56,-1.36,-89.99,0.455,0.530,0.541,-0.468
4640245.000000,-0.997,-0.023,-0.152,-0.03,-0.09,-0.05,12.25,33.33,1.46,98.56,-1.36,-89.99,0.455,0.530,0.541,-0.468
4640255.000000,-0.997,-0.027,-0.147,0.03,0.07,0.03,11.18,34.60,1.54,98.56,-1.36,-89.99,0.455,0.530,0.541,-0.468
4640265.000000,-0.993,-0.024,-0.152,0.01,0.01,0.03,11.10,34.75,1.75,98.56,-1.36,-89.99,0.455,0.530,0.541,-0.468
4640275.000000,-0.997,-0.023,-0.147,-0.01,-0.05,0.03,11.27,34.93,1.50,98.56,-1.36,-89.99,0.455,0.530,0.541,-0.468
4640285.000000,-0.993,-0.024,-0.149,-0.09,-0.05,-0.05,11.27,35.17,1.54,98.56,-1.36,-89.99,0.455,0.530,0.541,-0.468
4640295.000000,-0.996,-0.022,-0.153,0.03,-0.07,-0.01,11.46,34.71,1.83,98.56,-1.36,-89.99,0.455,0.530,0.541,-0.468
4640305.000000,-0.997,-0.023,-0.150,-0.01,0.03,0.01,11.33,33.88,1.42,98.56,-1.36,-89.99,0.455,0.530,0.541,-0.468
4640315.000000,-0.996,-0.023,-0.152,0.03,-0.01,-0.05,11.50,33.79,1.46,98.56,-1.36,-89.99,0.455,0.530,0.541,-0.468
4640325.000000,-0.998,-0.023,-0.152,0.01,-0.07,0.01,11.38,33.83,1.71,98.56,-1.36,-89.99,0.455,0.530,0.541,-0.468
4640335.000000,-0.998,-0.024,-0.145,0.01,-0.07,0.03,11.46,34.02,1.83,98.56,-1.36,-89.99,0.455,0.530,0.541,-0.468
4640345.000000,-0.996,-0.024,-0.149,-0.05,0.03,0.08,11.46,33.88,1.63,98.56,-1.36,-89.99,0.455,0.530,0.541,-0.468
4640355.000000,-0.996,-0.026,-0.152,-0.09,-0.03,-0.01,12.67,34.56,1.50,98.56,-1.36,-89.99,0.455,0.530,0.541,-0.468
4640365.000000,-0.994,-0.024,-0.150,-0.03,0.05,0.01,13.17,34.98,1.83,98.56,-1.36,-89.99,0.455,0.530,0.541,-0.468
4640375.000000,-0.998,-0.024,-0.149,0.05,-0.05,0.01,13.13,34.83,1.63,98.56,-1.36,-89.99,0.455,0.530,0.541,-0.468
4640385.000000,-0.997,-0.022,-0.149,0.01,0.03,0.01,13.02,34.83,1.38,98.56,-1.36,-89.99,0.455,0.530,0.541,-0.468
4640395.000000,-0.997,-0.023,-0.149,0.09,0.18,0.01,13.25,34.67,1.33,98.56,-1.36,-89.99,0.455,0.530,0.541,-0.468
4640405.000000,-0.997,-0.024,-0.148,-0.05,0.14,-0.05,11.88,34.83,1.54,98.56,-1.36,-89.99,0.455,0.530,0.541,-0.468
4640415.000000,-0.997,-0.024,-0.152,-0.01,-0.05,0.14,11.50,34.60,1.33,98.56,-1.36,-89.99,0.455,0.530,0.541,-0.468
4640425.000000,-0.993,-0.024,-0.147,0.05,0.05,-0.09,11.64,34.48,1.63,98.56,-1.36,-89.99,0.455,0.530,0.541,-0.468
4640435.000000,-0.996,-0.022,-0.153,-0.05,0.09,0.08,11.56,34.02,1.50,98.56,-1.36,-89.99,0.455,0.530,0.541,-0.468
4640445.000000,-0.996,-0.024,-0.150,-0.05,-0.03,-0.05,11.56,34.25,1.38,98.56,-1.36,-89.99,0.455,0.530,0.541,-0.468
4640455.000000,-0.993,-0.023,-0.148,0.01,-0.07,-0.01,12.52,33.38,1.71,98.56,-1.36,-89.99,0.455,0.530,0.541,-0.468
4640465.000000,-0.996,-0.023,-0.152,-0.03,-0.13,0.08,12.38,33.14,1.75,98.56,-1.36,-89.99,0.455,0.530,0.541,-0.468
4640475.000000,-0.997,-0.023,-0.152,-0.07,-0.03,-0.15,12.52,33.38,1.79,98.56,-1.36,-89.99,0.455,0.530,0.541,-0.468
4640485.000000,-0.996,-0.021,-0.152,-0.13,0.05,-0.03,12.48,33.10,1.92,98.56,-1.36,-89.99,0.455,0.530,0.541,-0.468
4640495.000000,-0.996,-0.024,-0.150,-0.07,-0.01,0.01,12.14,33.46,1.71,98.56,-1.36,-89.99,0.455,0.530,0.541,-0.468
4640505.000000,-0.994,-0.024,-0.148,-0.05,0.01,0.08,12.25,34.29,1.38,98.56,-1.36,-89.99,0.455,0.530,0.541,-0.468
4640515.000000,-0.996,-0.026,-0.149,-0.05,-0.03,-0.11,12.21,33.98,1.50,98.56,-1.36,-89.99,0.455,0.530,0.541,-0.468
4640525.000000,-0.996,-0.024,-0.147,0.05,0.05,-0.05,12.14,34.33,1.33,98.56,-1.36,-89.99,0.455,0.530,0.541,-0.468
4640535.000000,-0.994,-0.024,-0.153,-0.11,0.03,0.14,12.33,34.33,1.42,98.56,-1.36,-89.99,0.455,0.530,0.541,-0.468
4640545.000000,-0.992,-0.022,-0.148,-0.03,0.09,0.12,12.48,34.06,1.79,98.56,-1.36,-89.99,0.455,0.530,0.541,-0.468
4640555.000000,-0.997,-0.023,-0.149,0.09,-0.05,-0.01,13.06,34.21,1.50,98.56,-1.36,-89.99,0.455,0.530,0.541,-0.468
4640565.000000,-0.996,-0.022,-0.153,0.01,0.01,-0.05,12.98,34.10,1.50,98.56,-1.36,-89.99,0.455,0.530,0.541,-0.468
4640575.000000,-0.994,-0.023,-0.149,0.07,-0.05,-0.05,13.06,34.29,1.58,98.56,-1.36,-89.99,0.455,0.530,0.541,-0.468
4640585.000000,-0.994,-0.022,-0.149,0.01,0.09,-0.09,12.98,33.79,1.58,98.56,-1.36,-89.99,0.455,0.530,0.541,-0.468
4640595.000000,-0.996,-0.026,-0.150,0.07,-0.03,-0.03,13.21,34.10,1.50,98.56,-1.36,-89.99,0.455,0.530,0.541,-0.468
4640605.000000,-0.997,-0.026,-0.149,0.01,-0.03,0.01,12.79,33.83,1.42,98.56,-1.36,-89.99,0.455,0.530,0.541,-0.468
4640615.000000,-0.996,-0.024,-0.152,-0.01,0.07,-0.09,12.29,34.06,1.58,98.56,-1.36,-89.99,0.455,0.530,0.541,-0.468
4640625.000000,-0.996,-0.024,-0.148,0.03,0.07,-0.07,12.10,34.33,1.25,98.56,-1.36,-89.99,0.455,0.530,0.541,-0.468
4640635.000000,-0.997,-0.023,-0.152,0.01,-0.01,0.01,12.38,33.79,1.25,98.56,-1.36,-89.99,0.455,0.530,0.541,-0.468
4640645.000000,-0.996,-0.026,-0.147,-0.01,0.18,-0.01,12.14,34.29,1.42,98.56,-1.36,-89.99,0.455,0.530,0.541,-0.468
4640655.000000,-0.994,-0.024,-0.150,0.09,0.22,0.05,12.21,34.14,1.17,98.56,-1.36,-89.99,0.455,0.530,0.541,-0.468
4640665.000000,-0.997,-0.024,-0.147,0.01,-0.07,-0.05,12.43,34.25,1.46,98.56,-1.36,-89.99,0.455,0.530,0.541,-0.468
4640675.000000,-0.996,-0.024,-0.152,0.05,-0.01,0.05,12.33,33.75,1.33,98.56,-1.36,-89.99,0.455,0.530,0.541,-0.468
4640685.000000,-0.997,-0.023,-0.148,0.09,0.03,0.05,11.92,34.06,1.42,98.56,-1.36,-89.99,0.455,0.530,0.541,-0.468
4640695.000000,-0.993,-0.023,-0.148,0.01,0.01,0.03,12.60,33.92,1.38,98.56,-1.36,-89.99,0.455,0.530,0.541,-0.468
4640705.000000,-0.997,-0.026,-0.150,-0.01,-0.07,-0.03,12.25,33.92,1.38,98.56,-1.36,-89.99,0.455,0.530,0.541,-0.468
4640715.000000,-0.993,-0.026,-0.148,0.07,0.05,0.01,12.06,33.92,1.13,98.56,-1.36,-89.99,0.455,0.530,0.541,-0.468
4640725.000000,-0.996,-0.022,-0.148,0.01,0.18,-0.07,12.33,34.02,1.29,98.56,-1.36,-89.99,0.455,0.530,0.541,-0.468
4640735.000000,-0.996,-0.023,-0.152,-0.01,0.16,0.01,12.60,34.02,1.50,98.56,-1.36,-89.99,0.455,0.530,0.541,-0.468
4640745.000000,-0.997,-0.022,-0.149,0.05,-0.05,-0.05,12.21,34.02,1.13,98.57,-1.36,-89.99,0.455,0.530,0.541,-0.468
4640755.000000,-0.993,-0.022,-0.147,0.07,0.01,0.05,12.60,34.02,1.25,98.57,-1.36,-89.99,0.455,0.530,0.541,-0.468
4640765.000000,-0.997,-0.024,-0.149,-0.07,0.01,0.03,12.43,34.10,1.29,98.57,-1.36,-89.99,0.455,0.530,0.541,-0.468
4640775.000000,-0.996,-0.024,-0.152,0.07,0.01,-0.03,12.43,34.21,1.29,98.57,-1.36,-89.99,0.455,0.530,0.541,-0.468
4640785.000000,-0.994,-0.026,-0.148,-0.13,0.01,-0.05,12.93,33.68,1.21,98.57,-1.36,-89.99,0.455,0.530,0.541,-0.468
4640795.000000,-0.996,-0.024,-0.150,0.01,0.01,-0.03,12.43,34.14,1.58,98.57,-1.36,-89.99,0.455,0.530,0.541,-0.468
4640805.000000,-0.994,-0.022,-0.153,0.05,0.05,0.01,12.52,34.02,1.58,98.57,-1.36,-89.99,0.455,0.530,0.541,-0.468
4640815.000000,-0.997,-0.024,-0.149,-0.03,-0.01,-0.01,12.48,33.92,1.63,98.57,-1.36,-89.99,0.455,0.530,0.541,-0.468
4640825.000000,-0.996,-0.022,-0.153,0.03,-0.05,0.07,12.14,34.14,1.79,98.57,-1.36,-89.99,0.455,0.530,0.541,-0.468
4640835.000000,-0.998,-0.026,-0.148,-0.01,-0.01,-0.05,12.06,34.06,1.54,98.56,-1.36,-89.99,0.455,0.530,0.541,-0.468
4640845.000000,-0.996,-0.024,-0.149,-0.03,0.07,0.06,12.33,34.38,1.63,98.56,-1.36,-89.99,0.455,0.530,0.541,-0.468
4640855.000000,-0.998,-0.026,-0.156,0.05,0.03,0.01,11.18,34.33,1.50,98.57,-1.36,-89.99,0.455,0.530,0.541,-0.468
4640865.000000,-0.996,-0.023,-0.149,-0.01,0.09,0.05,11.27,34.67,1.67,98.57,-1.36,-89.99,0.455,0.530,0.541,-0.468
4640875.000000,-0.994,-0.026,-0.154,-0.03,-0.05,-0.07,11.46,34.33,1.67,98.57,-1.36,-89.99,0.455,0.530,0.541,-0.468
4640885.000000,-0.997,-0.026,-0.149,0.03,-0.05,-0.03,11.04,34.60,1.38,98.57,-1.36,-89.99,0.455,0.530,0.541,-0.468
4640895.000000,-0.994,-0.022,-0.152,0.03,-0.01,-0.07,11.23,34.10,1.54,98.57,-1.36,-89.99,0.455,0.530,0.541,-0.468
4640905.000000,-0.996,-0.024,-0.148,0.03,-0.03,-0.05,11.60,34.43,1.67,98.57,-1.36,-89.99,0.455,0.530,0.541,-0.468
4640915.000000,-0.994,-0.023,-0.150,0.01,0.01,-0.01,11.83,34.43,1.46,98.57,-1.36,-90.00,0.455,0.530,0.541,-0.468
4640925.000000,-0.996,-0.027,-0.147,0.07,-0.01,0.01,11.75,34.75,1.58,98.57,-1.36,-90.00,0.455,0.530,0.541,-0.468
4640935.000000,-0.996,-0.023,-0.152,-0.01,-0.03,-0.03,11.79,34.43,1.38,98.57,-1.36,-90.00,0.455,0.530,0.541,-0.468
4640945.000000,-0.997,-0.023,-0.148,-0.01,-0.03,-0.03,11.46,34.67,1.58,98.57,-1.36,-90.00,0.455,0.530,0.541,-0.468
4640955.000000,-0.994,-0.024,-0.150,-0.07,0.01,-0.01,11.79,34.43,1.42,98.56,-1.36,-90.00,0.455,0.530,0.541,-0.468
4640965.000000,-0.993,-0.023,-0.148,0.03,0.12,0.01,11.68,34.06,1.42,98.57,-1.36,-89.99,0.455,0.530,0.541,-0.468
4640975.000000,-0.997,-0.023,-0.147,0.01,0.07,0.01,11.79,33.83,1.75,98.57,-1.36,-90.00,0.455,0.530,0.541,-0.468
4640985.000000,-0.994,-0.026,-0.147,-0.01,-0.05,-0.07,11.60,34.10,1.54,98.57,-1.36,-90.00,0.455,0.530,0.541,-0.468
4640995.000000,-0.993,-0.021,-0.150,-0.03,-0.03,-0.01,11.50,33.79,1.33,98.57,-1.36,-90.00,0.455,0.530,0.541,-0.468
4641005.000000,-0.994,-0.024,-0.148,-0.01,0.05,0.03,11.10,34.33,1.42,98.57,-1.36,-89.99,0.455,0.530,0.541,-0.468
4641015.000000,-0.996,-0.027,-0.148,-0.03,-0.01,0.10,11.33,34.67,1.46,98.57,-1.36,-89.99,0.455,0.530,0.541,-0.468
4641025.000000,-0.994,-0.024,-0.148,-0.11,-0.03,-0.05,11.14,34.38,1.96,98.57,-1.36,-89.99,0.455,0.530,0.541,-0.468
4641035.000000,-0.997,-0.024,-0.148,0.05,-0.05,-0.03,11.04,34.29,1.83,98.56,-1.36,-89.99,0.455,0.530,0.541,-0.468
4641045.000000,-0.994,-0.026,-0.150,-0.05,0.12,0.12,11.33,34.48,1.58,98.56,-1.36,-89.99,0.455,0.530,0.541,-0.468
4641055.000000,-0.996,-0.023,-0.148,0.11,0.14,0.01,10.77,34.60,1.38,98.56,-1.36,-89.99,0.455,0.530,0.541,-0.468
4641065.000000,-0.993,-0.024,-0.149,0.03,0.12,0.01,10.88,34.52,1.63,98.57,-1.36,-89.99,0.455,0.530,0.541,-0.468
4641075.000000,-0.994,-0.026,-0.150,-0.07,0.09,-0.03,10.96,34.43,1.75,98.57,-1.36,-90.00,0.455,0.530,0.541,-0.468
4641085.000000,-0.994,-0.023,-0.150,-0.05,-0.01,0.06,10.68,34.21,1.50,98.57,-1.36,-89.99,0.455,0.530,0.541,-0.468
4641095.000000,-0.997,-0.026,-0.149,-0.03,0.12,0.08,11.14,34.38,1.67,98.57,-1.36,-89.99,0.455,0.530,0.541,-0.468
4641105.000000,-0.997,-0.024,-0.149,0.01,0.09,-0.07,12.43,34.25,1.29,98.57,-1.36,-89.99,0.455,0.530,0.541,-0.468
4641115.000000,-0.996,-0.024,-0.150,-0.03,-0.01,0.03,11.98,34.29,1.88,98.57,-1.36,-89.99,0.455,0.530,0.541,-0.468
4641125.000000,-0.996,-0.023,-0.153,-0.05,0.03,0.06,12.14,34.29,1.88,98.57,-1.36,-89.99,0.455,0.530,0.541,-0.468
4641135.000000,-0.994,-0.023,-0.150,-0.03,-0.05,-0.09,12.02,34.48,1.79,98.57,-1.36,-89.99,0.455,0.530,0.541,-0.468
4641145.000000,-0.996,-0.026,-0.149,-0.03,-0.01,-0.09,11.88,34.25,1.42,98.57,-1.36,-89.99,0.455,0.530,0.541,-0.468
4641155.000000,-0.994,-0.023,-0.152,-0.05,0.07,0.01,12.79,34.52,1.58,98.57,-1.36,-89.99,0.455,0.530,0.541,-0.468
4641165.000000,-0.996,-0.024,-0.149,0.09,0.12,-0.11,12.79,34.14,1.67,98.57,-1.36,-89.99,0.455,0.530,0.541,-0.468
4641175.000000,-0.994,-0.023,-0.150,0.01,0.01,0.01,12.79,34.75,2.00,98.57,-1.36,-89.99,0.455,0.530,0.541,-0.468
4641185.000000,-0.997,-0.024,-0.149,-0.03,0.03,-0.01,12.67,33.98,1.92,98.57,-1.36,-89.99,0.455,0.530,0.541,-0.468
4641195.000000,-0.993,-0.023,-0.150,0.13,0.05,0.05,12.21,34.56,1.75,98.57,-1.36,-89.99,0.455,0.530,0.541,-0.468
4641205.000000,-0.994,-0.021,-0.148,0.01,-0.05,-0.01,12.21,34.56,1.75,98.57,-1.36,-89.99,0.455,0.530,0.541,-0.468
4641215.000000,-0.997,-0.026,-0.149,-0.01,-0.15,-0.05,11.68,34.14,1.21,98.57,-1.36,-89.99,0.455,0.530,0.541,-0.468
4641225.000000,-0.994,-0.024,-0.154,-0.01,0.07,0.05,11.98,34.38,1.83,98.57,-1.36,-89.99,0.455,0.530,0.541,-0.468
4641235.000000,-0.993,-0.026,-0.147,-0.07,-0.15,-0.01,11.75,34.10,1.54,98.57,-1.36,-89.99,0.455,0.530,0.541,-0.468
4641245.000000,-0.996,-0.024,-0.152,0.01,0.05,-0.07,11.83,34.38,1.29,98.57,-1.36,-89.99,0.455,0.530,0.541,-0.468
4641255.000000,-0.997,-0.026,-0.150,0.03,-0.03,0.05,11.83,34.38,1.29,98.57,-1.36,-89.99,0.455,0.530,0.541,-0.468
4641265.000000,-0.994,-0.024,-0.147,0.03,-0.07,0.01,12.21,34.06,1.58,98.57,-1.36,-89.99,0.455,0.530,0.541,-0.468
4641275.000000,-0.996,-0.022,-0.150,0.01,0.01,-0.03,11.92,33.75,1.79,98.57,-1.36,-89.99,0.455,0.530,0.541,-0.468
4641285.000000,-0.997,-0.026,-0.150,0.07,-0.07,-0.03,11.83,33.60,1.79,98.57,-1.36,-89.99,0.455,0.530,0.541,-0.468
4641295.000000,-0.994,-0.023,-0.149,-0.03,0.07,-0.09,11.88,34.14,2.25,98.57,-1.36,-90.00,0.455,0.530,0.541,-0.468
4641305.000000,-0.997,-0.023,-0.152,0.01,0.03,0.01,11.88,34.14,2.25,98.57,-1.36,-89.99,0.455,0.530,0.541,-0.468
4641315.000000,-0.996,-0.024,-0.149,-0.07,0.05,0.14,11.83,35.06,1.71,98.57,-1.36,-90.00,0.455,0.530,0.541,-0.468
4641325.000000,-0.996,-0.023,-0.150,0.01,-0.03,0.01,11.98,35.48,1.50,98.57,-1.36,-89.99,0.455,0.530,0.541,-0.468
4641335.000000,-0.994,-0.023,-0.150,0.09,0.03,0.03,11.75,34.83,1.75,98.57,-1.36,-89.99,0.455,0.530,0.541,-0.468
4641345.000000,-0.996,-0.026,-0.144,-0.05,0.07,0.06,11.75,34.98,1.71,98.57,-1.36,-90.00,0.455,0.530,0.541,-0.468
4641355.000000,-0.994,-0.023,-0.152,-0.01,-0.01,0.01,11.75,34.98,1.71,98.57,-1.36,-90.00,0.455,0.530,0.541,-0.468
4641365.000000,-0.996,-0.023,-0.150,0.01,0.01,0.03,12.60,34.52,1.63,98.57,-1.36,-90.00,0.455,0.530,0.541,-0.468
4641375.000000,-0.997,-0.026,-0.152,-0.03,0.01,0.08,12.75,34.83,1.92,98.57,-1.36,-90.00,0.455,0.530,0.541,-0.468
4641385.000000,-0.993,-0.027,-0.150,0.03,0.09,-0.05,12.60,34.67,1.50,98.57,-1.36,-90.00,0.455,0.530,0.541,-0.468
4641395.000000,-0.996,-0.023,-0.154,-0.05,-0.03,0.06,12.52,34.38,1.88,98.57,-1.36,-90.00,0.455,0.530,0.541,-0.468
4641405.000000,-0.996,-0.023,-0.149,0.01,0.07,-0.07,12.52,34.38,1.88,98.57,-1.36,-90.00,0.455,0.530,0.541,-0.468
4641415.000000,-0.994,-0.024,-0.148,0.01,0.03,0.03,12.38,34.25,1.46,98.57,-1.36,-89.99,0.455,0.530,0.541,-0.468
4641425.000000,-0.996,-0.024,-0.152,-0.03,-0.03,0.10,11.98,34.79,1.63,98.57,-1.36,-90.00,0.455,0.530,0.541,-0.468
4641435.000000,-0.996,-0.022,-0.152,0.05,0.05,-0.05,11.68,34.93,1.58,98.57,-1.36,-90.00,0.455,0.530,0.541,-0.468
4641445.000000,-0.996,-0.022,-0.149,-0.05,-0.05,-0.09,12.21,34.83,1.88,98.57,-1.36,-90.00,0.455,0.530,0.541,-0.468
4641455.000000,-0.998,-0.024,-0.152,-0.01,-0.13,-0.05,12.21,34.83,1.88,98.57,-1.36,-90.00,0.455,0.530,0.541,-0.468
4641465.000000,-0.993,-0.024,-0.152,-0.05,-0.03,-0.07,12.43,34.43,1.08,98.56,-1.37,-89.99,0.455,0.530,0.541,-0.468
4641475.000000,-0.996,-0.024,-0.152,0.05,-0.07,0.05,12.29,34.25,1.33,98.56,-1.37,-89.99,0.455,0.530,0.541,-0.468
4641485.000000,-0.993,-0.024,-0.147,0.01,-0.05,0.10,11.88,34.33,1.46,98.56,-1.36,-90.00,0.455,0.530,0.541,-0.468
4641495.000000,-0.996,-0.023,-0.148,-0.03,0.03,-0.09,11.98,34.10,1.00,98.56,-1.36,-90.00,0.455,0.530,0.541,-0.468
4641505.000000,-0.997,-0.024,-0.152,0.05,0.07,-0.01,11.98,34.10,1.00,98.56,-1.36,-90.00,0.455,0.530,0.541,-0.468
4641515.000000,-0.997,-0.026,-0.145,0.07,0.03,0.05,11.33,34.89,1.67,98.56,-1.36,-90.00,0.455,0.530,0.541,-0.468
4641525.000000,-0.996,-0.022,-0.149,0.03,0.16,0.01,11.60,34.89,1.58,98.56,-1.36,-90.00,0.455,0.530,0.541,-0.468
4641535.000000,-0.996,-0.026,-0.148,-0.03,0.03,-0.01,11.60,34.89,1.58,98.56,-1.36,-90.00,0.455,0.530,0.541,-0.468
4641545.000000,-0.996,-0.026,-0.152,0.03,-0.03,0.01,11.60,34.89,1.58,98.56,-1.36,-90.00,0.455,0.530,0.541,-0.468
4641555.000000,-0.994,-0.021,-0.149,0.03,0.03,0.03,11.60,34.89,1.58,98.56,-1.36,-90.00,0.455,0.530,0.541,-0.468
4641565.000000,-0.996,-0.023,-0.148,-0.01,-0.05,0.01,11.88,35.02,1.63,98.56,-1.36,-90.00,0.455,0.530,0.541,-0.468
4641575.000000,-0.996,-0.026,-0.149,0.05,0.05,-0.05,11.88,35.02,1.63,98.56,-1.36,-90.00,0.455,0.530,0.541,-0.468
4641585.000000,-0.996,-0.022,-0.145,0.11,0.01,0.05,11.68,35.13,1.75,98.56,-1.37,-90.00,0.455,0.530,0.541,-0.468
4641595.000000,-0.994,-0.024,-0.152,0.03,0.01,0.03,11.56,34.75,1.50,98.56,-1.36,-90.00,0.455,0.530,0.541,-0.468
4641605.000000,-1.000,-0.026,-0.148,-0.07,0.01,-0.05,11.88,34.60,1.67,98.56,-1.36,-90.00,0.455,0.530,0.541,-0.468
4641615.000000,-0.996,-0.021,-0.149,-0.05,0.16,0.06,12.29,34.14,1.58,98.57,-1.37,-90.00,0.455,0.530,0.541,-0.468
4641625.000000,-0.997,-0.024,-0.149,-0.05,0.05,0.03,12.14,34.25,1.29,98.57,-1.36,-90.00,0.455,0.530,0.541,-0.468
4641635.000000,-0.996,-0.023,-0.152,-0.03,-0.01,-0.09,12.14,33.98,1.67,98.57,-1.36,-90.00,0.455,0.530,0.541,-0.468
4641645.000000,-0.996,-0.024,-0.148,0.15,-0.03,-0.05,12.43,34.43,1.50,98.57,-1.36,-90.00,0.455,0.530,0.541,-0.468
4641655.000000,-0.996,-0.023,-0.150,-0.05,0.03,-0.01,12.29,34.25,1.46,98.57,-1.36,-90.00,0.455,0.530,0.541,-0.468
4641665.000000,-0.996,-0.024,-0.152,-0.03,0.05,0.01,11.60,33.38,1.33,98.57,-1.37,-90.00,0.455,0.530,0.541,-0.468
4641675.000000,-0.997,-0.023,-0.150,0.05,0.07,0.03,11.83,33.29,1.42,98.57,-1.36,-90.00,0.455,0.530,0.541,-0.468
4641685.000000,-0.996,-0.023,-0.153,-0.01,0.07,0.03,11.75,33.60,1.42,98.57,-1.36,-90.00,0.455,0.530,0.541,-0.468
4641695.000000,-0.998,-0.024,-0.148,-0.01,-0.05,-0.09,11.79,33.33,1.08,98.57,-1.36,-90.00,0.455,0.530,0.541,-0.468
4641705.000000,-0.993,-0.022,-0.150,0.07,0.18,0.01,11.83,33.18,1.42,98.57,-1.36,-90.00,0.455,0.530,0.541,-0.468
4641715.000000,-0.997,-0.024,-0.150,0.05,-0.01,0.03,12.25,33.92,1.46,98.57,-1.36,-90.00,0.455,0.530,0.541,-0.468
4641725.000000,-0.994,-0.027,-0.148,0.07,0.12,0.07,11.50,33.79,1.42,98.57,-1.36,-90.00,0.455,0.530,0.541,-0.468
4641735.000000,-0.994,-0.023,-0.150,-0.01,-0.01,-0.03,12.25,34.21,1.33,98.57,-1.36,-90.00,0.455,0.530,0.541,-0.468
4641745.000000,-0.996,-0.026,-0.149,-0.01,-0.13,-0.05,12.25,33.92,1.50,98.57,-1.36,-90.00,0.455,0.530,0.541,-0.468
4641755.000000,-0.994,-0.024,-0.145,0.01,0.16,-0.01,12.21,34.21,1.21,98.57,-1.37,-90.00,0.455,0.530,0.541,-0.468
4641765.000000,-0.996,-0.026,-0.149,-0.01,0.05,-0.03,12.48,34.29,1.25,98.57,-1.37,-90.00,0.455,0.530,0.541,-0.468
4641775.000000,-0.997,-0.023,-0.153,-0.05,-0.05,0.08,12.29,33.98,1.08,98.57,-1.37,-90.00,0.455,0.530,0.541,-0.468
4641785.000000,-0.996,-0.026,-0.148,-0.07,0.18,0.06,12.56,33.92,1.46,98.57,-1.37,-90.00,0.455,0.530,0.541,-0.468
4641795.000000,-0.996,-0.024,-0.150,0.01,-0.19,-0.01,12.14,34.33,1.29,98.57,-1.36,-90.00,0.455,0.530,0.541,-0.468
4641805.000000,-0.996,-0.026,-0.152,-0.01,0.01,-0.03,12.38,34.67,1.42,98.57,-1.36,-90.00,0.455,0.530,0.541,-0.468
4641815.000000,-0.993,-0.023,-0.150,0.05,0.09,-0.03,13.02,34.21,1.25,98.57,-1.36,-90.00,0.455,0.530,0.541,-0.468
4641825.000000,-0.994,-0.021,-0.152,-0.01,0.09,-0.03,12.60,34.29,1.08,98.57,-1.36,-90.00,0.455,0.530,0.541,-0.468
4641835.000000,-0.996,-0.026,-0.152,0.03,-0.05,0.10,12.48,34.67,1.08,98.57,-1.36,-90.00,0.455,0.530,0.541,-0.468
4641845.000000,-0.997,-0.026,-0.156,-0.05,-0.01,-0.09,12.71,34.48,1.33,98.57,-1.36,-90.00,0.455,0.530,0.541,-0.468
4641855.000000,-0.994,-0.023,-0.149,0.05,0.12,0.07,12.71,34.56,1.58,98.57,-1.36,-90.00,0.455,0.530,0.541,-0.468
4641865.000000,-0.996,-0.024,-0.148,0.01,-0.01,-0.01,12.21,35.06,1.42,98.57,-1.36,-90.00,0.455,0.530,0.541,-0.468
4641875.000000,-0.996,-0.027,-0.152,-0.03,0.01,-0.03,12.25,34.75,1.29,98.57,-1.36,-90.00,0.455,0.530,0.541,-0.468
4641885.000000,-0.998,-0.024,-0.148,-0.07,0.01,0.16,12.43,34.83,1.46,98.57,-1.36,-90.00,0.455,0.530,0.541,-0.468
4641895.000000,-0.996,-0.026,-0.148,0.03,-0.09,-0.03,12.71,34.83,1.38,98.57,-1.36,-90.00,0.455,0.530,0.541,-0.468
4641905.000000,-0.996,-0.026,-0.152,0.05,-0.03,-0.01,12.56,34.89,1.58,98.57,-1.36,-90.00,0.455,0.530,0.541,-0.468
4641915.000000,-0.994,-0.023,-0.154,0.07,-0.01,-0.05,13.17,34.10,1.50,98.57,-1.36,-90.00,0.455,0.530,0.541,-0.468
4641925.000000,-0.997,-0.026,-0.149,0.05,-0.05,-0.05,13.29,34.56,1.75,98.57,-1.36,-90.00,0.455,0.530,0.541,-0.468
4641935.000000,-0.997,-0.024,-0.149,0.03,0.07,-0.05,12.79,34.43,1.38,98.57,-1.37,-90.00,0.455,0.530,0.541,-0.468
4641945.000000,-0.998,-0.026,-0.152,-0.01,0.03,0.05,13.21,34.79,1.33,98.57,-1.37,-90.00,0.455,0.530,0.541,-0.468
4641955.000000,-0.998,-0.024,-0.148,0.09,0.05,-0.07,13.21,34.48,1.58,98.57,-1.37,-90.00,0.455,0.530,0.541,-0.468
4641965.000000,-0.996,-0.024,-0.150,-0.05,0.09,-0.05,12.21,34.14,1.67,98.57,-1.37,-90.00,0.455,0.530,0.541,-0.468
4641975.000000,-0.996,-0.024,-0.150,-0.05,-0.03,-0.07,11.92,34.14,1.79,98.57,-1.37,-90.00,0.455,0.530,0.541,-0.468
4641985.000000,-0.997,-0.023,-0.152,0.07,0.07,0.05,11.88,34.06,1.79,98.57,-1.37,-90.00,0.455,0.530,0.541,-0.468
4641995.000000,-0.994,-0.022,-0.152,-0.13,0.07,0.02,11.79,34.52,1.83,98.57,-1.37,-90.00,0.455,0.530,0.541,-0.468
4642005.000000,-0.994,-0.023,-0.150,0.05,0.03,0.01,11.98,34.38,1.71,98.57,-1.37,-90.00,0.455,0.530,0.541,-0.468
4642015.000000,-0.994,-0.022,-0.149,0.05,-0.03,-0.03,11.79,34.75,1.63,98.57,-1.37,-90.00,0.455,0.530,0.541,-0.468
4642025.000000,-0.994,-0.024,-0.147,0.09,0.05,-0.07,11.98,35.13,1.79,98.57,-1.37,-90.00,0.455,0.530,0.541,-0.468
4642035.000000,-0.994,-0.027,-0.148,-0.03,0.16,-0.05,11.38,34.89,1.46,98.57,-1.37,-90.00,0.455,0.530,0.541,-0.468
4642045.000000,-0.996,-0.024,-0.152,0.01,0.03,0.03,12.06,35.06,1.50,98.57,-1.37,-90.00,0.455,0.530,0.541,-0.468
4642055.000000,-0.993,-0.026,-0.154,0.15,-0.05,0.01,11.64,35.21,1.71,98.57,-1.37,-90.00,0.455,0.530,0.541,-0.468
4642065.000000,-0.994,-0.024,-0.149,-0.03,0.05,0.01,11.79,34.83,1.50,98.57,-1.37,-90.00,0.455,0.530,0.541,-0.468
4642075.000000,-0.992,-0.026,-0.150,0.01,0.12,-0.07,11.83,34.89,1.29,98.57,-1.37,-90.00,0.455,0.530,0.541,-0.468
4642085.000000,-0.996,-0.026,-0.148,-0.01,0.03,-0.01,11.68,35.43,1.50,98.58,-1.37,-90.00,0.455,0.530,0.541,-0.468
4642095.000000,-0.996,-0.024,-0.149,-0.03,-0.03,-0.05,11.60,35.13,1.46,98.58,-1.37,-90.00,0.455,0.530,0.541,-0.468
4642105.000000,-0.993,-0.023,-0.149,0.07,0.03,-0.05,11.46,35.06,1.42,98.58,-1.37,-90.00,0.455,0.530,0.541,-0.468
4642115.000000,-0.998,-0.023,-0.153,-0.03,0.03,0.06,11.38,34.38,1.42,98.58,-1.37,-90.00,0.455,0.530,0.541,-0.468
4642125.000000,-0.998,-0.028,-0.147,0.01,0.03,-0.03,10.96,34.67,1.04,98.58,-1.37,-90.00,0.455,0.530,0.541,-0.468
4642135.000000,-0.997,-0.026,-0.150,-0.07,-0.07,0.10,11.18,34.33,1.42,98.58,-1.37,-90.00,0.455,0.530,0.541,-0.468
4642145.000000,-0.994,-0.024,-0.149,0.07,0.07,0.05,11.33,34.14,1.13,98.58,-1.37,-90.00,0.455,0.530,0.541,-0.468
4642155.000000,-0.996,-0.024,-0.149,0.01,0.01,0.03,11.18,33.98,1.13,98.58,-1.37,-90.00,0.455,0.530,0.541,-0.468
4642165.000000,-0.994,-0.024,-0.149,0.03,0.01,0.05,11.83,34.33,1.50,98.58,-1.37,-90.00,0.455,0.530,0.541,-0.468
4642175.000000,-0.997,-0.023,-0.148,0.05,0.01,0.01,11.75,33.92,1.17,98.58,-1.37,-90.00,0.455,0.530,0.541,-0.468
4642185.000000,-0.996,-0.024,-0.149,0.05,0.01,-0.01,11.75,34.25,1.38,98.58,-1.37,-90.00,0.455,0.530,0.541,-0.468
4642195.000000,-0.997,-0.024,-0.152,-0.01,-0.03,-0.05,11.42,34.43,1.88,98.57,-1.37,-90.00,0.455,0.530,0.541,-0.468
4642205.000000,-0.997,-0.026,-0.150,0.01,0.03,-0.01,11.50,34.48,1.50,98.57,-1.37,-90.00,0.455,0.530,0.541,-0.468
4642215.000000,-0.994,-0.024,-0.149,0.03,-0.07,-0.09,11.33,33.92,1.63,98.57,-1.37,-90.00,0.455,0.530,0.541,-0.468
4642225.000000,-0.992,-0.023,-0.149,-0.07,-0.07,-0.05,11.27,33.79,1.38,98.57,-1.37,-90.00,0.455,0.530,0.541,-0.468
4642235.000000,-0.993,-0.024,-0.152,-0.01,-0.07,0.10,10.96,33.83,1.63,98.57,-1.37,-90.00,0.455,0.530,0.541,-0.468
4642245.000000,-0.994,-0.024,-0.152,-0.03,0.01,0.03,11.33,34.21,1.75,98.57,-1.37,-90.00,0.455,0.530,0.541,-0.468
4642255.000000,-0.994,-0.024,-0.152,-0.01,0.01,0.01,11.14,34.21,1.21,98.57,-1.37,-90.00,0.455,0.530,0.541,-0.468
4642265.000000,-0.996,-0.024,-0.147,-0.03,0.03,-0.05,12.02,34.25,1.38,98.57,-1.37,-90.00,0.455,0.530,0.541,-0.468
4642275.000000,-0.994,-0.023,-0.150,-0.01,0.09,0.16,12.25,33.88,1.54,98.57,-1.37,-90.00,0.455,0.530,0.541,-0.468
4642285.000000,-0.997,-0.024,-0.147,-0.01,0.18,-0.01,11.64,34.06,1.25,98.57,-1.37,-90.00,0.455,0.530,0.541,-0.468
4642295.000000,-0.996,-0.023,-0.149,-0.05,-0.01,0.12,12.14,34.38,1.33,98.57,-1.37,-90.00,0.455,0.530,0.541,-0.468
4642305.000000,-0.997,-0.024,-0.150,-0.01,-0.07,0.01,11.98,34.06,1.58,98.57,-1.37,-90.00,0.455,0.530,0.541,-0.468
4642315.000000,-0.997,-0.026,-0.145,0.01,0.09,-0.03,11.23,34.25,1.33,98.57,-1.37,-90.00,0.455,0.530,0.541,-0.468
4642325.000000,-0.994,-0.023,-0.149,-0.05,0.09,-0.07,12.06,34.43,1.71,98.57,-1.37,-90.00,0.455,0.530,0.541,-0.468
4642335.000000,-0.996,-0.024,-0.150,0.01,0.09,0.08,11.79,34.02,1.67,98.57,-1.37,-90.00,0.455,0.530,0.541,-0.468
4642345.000000,-0.997,-0.022,-0.149,0.05,0.07,-0.01,11.83,34.48,1.67,98.57,-1.37,-90.00,0.455,0.530,0.541,-0.468
4642356.000000,-0.997,-0.023,-0.150,-0.07,-0.01,0.01,11.75,34.33,1.38,98.57,-1.37,-90.00,0.455,0.530,0.541,-0.468
4642366.000000,-0.994,-0.024,-0.152,-0.01,0.12,0.03,11.88,34.25,1.33,98.57,-1.37,-90.00,0.455,0.530,0.541,-0.468
4642376.000000,-0.997,-0.024,-0.149,-0.01,-0.01,-0.01,11.50,34.29,1.50,98.57,-1.36,-90.00,0.455,0.530,0.541,-0.468
4642386.000000,-0.998,-0.023,-0.150,0.01,-0.09,-0.05,11.79,33.88,1.42,98.57,-1.37,-90.00,0.455,0.530,0.541,-0.468
4642396.000000,-0.996,-0.023,-0.150,-0.01,0.03,-0.03,11.92,34.43,1.71,98.57,-1.37,-90.00,0.455,0.530,0.541,-0.468
4642406.000000,-0.993,-0.023,-0.149,-0.01,-0.05,-0.05,12.06,33.92,1.71,98.57,-1.37,-90.00,0.455,0.530,0.541,-0.468
4642416.000000,-0.996,-0.023,-0.145,-0.09,0.01,0.04,12.33,34.29,1.46,98.57,-1.37,-90.00,0.455,0.530,0.541,-0.468
4642426.000000,-0.997,-0.026,-0.152,0.01,0.07,0.01,12.21,34.25,1.33,98.57,-1.37,-90.00,0.455,0.530,0.541,-0.468
4642436.000000,-0.997,-0.024,-0.149,-0.07,0.07,-0.03,11.75,34.43,1.67,98.57,-1.37,-90.00,0.455,0.530,0.541,-0.468
4642446.000000,-0.996,-0.024,-0.149,-0.01,0.09,0.03,11.98,34.29,1.42,98.57,-1.37,-90.00,0.455,0.530,0.541,-0.468
4642456.000000,-0.996,-0.022,-0.150,-0.01,-0.01,0.05,11.92,34.25,1.75,98.57,-1.37,-90.00,0.455,0.530,0.541,-0.468
4642466.000000,-0.994,-0.024,-0.148,0.05,0.01,-0.05,11.92,34.43,1.50,98.57,-1.37,-90.00,0.455,0.530,0.541,-0.468
4642476.000000,-0.996,-0.024,-0.148,0.05,0.14,0.05,11.83,34.67,1.58,98.57,-1.37,-90.00,0.455,0.530,0.541,-0.468
4642486.000000,-0.993,-0.022,-0.152,0.07,0.01,-0.03,11.79,34.89,1.88,98.57,-1.37,-90.00,0.455,0.530,0.541,-0.468
4642496.000000,-0.997,-0.026,-0.148,-0.01,0.01,0.08,11.83,34.38,1.42,98.58,-1.37,-90.00,0.455,0.530,0.541,-0.468
4642506.000000,-0.994,-0.022,-0.153,-0.09,-0.03,-0.01,12.21,34.71,1.67,98.58,-1.37,-90.00,0.455,0.530,0.541,-0.468
4642516.000000,-0.994,-0.023,-0.149,0.05,0.09,0.07,11.64,34.75,1.46,98.58,-1.37,-90.00,0.455,0.530,0.541,-0.468
4642526.000000,-0.992,-0.021,-0.148,0.05,0.03,-0.05,11.56,34.98,1.63,98.58,-1.37,-90.00,0.455,0.530,0.541,-0.468
4642536.000000,-0.997,-0.024,-0.150,-0.09,0.03,0.10,11.33,34.83,1.58,98.58,-1.37,-90.00,0.455,0.530,0.541,-0.468
4642546.000000,-0.994,-0.027,-0.148,-0.13,-0.01,-0.03,11.42,34.75,1.58,98.58,-1.36,-90.00,0.455,0.530,0.541,-0.468
4642556.000000,-0.996,-0.024,-0.149,0.05,0.05,-0.01,11.60,34.89,1.46,98.58,-1.36,-90.00,0.455,0.530,0.541,-0.468
4642566.000000,-0.996,-0.023,-0.150,0.09,-0.01,-0.13,11.98,33.46,1.33,98.58,-1.36,-90.00,0.455,0.530,0.541,-0.468
4642576.000000,-0.994,-0.026,-0.148,-0.03,0.05,-0.05,12.25,33.29,1.08,98.58,-1.37,-90.00,0.455,0.530,0.541,-0.468
4642586.000000,-0.997,-0.024,-0.149,-0.05,-0.11,0.01,12.10,32.73,1.25,98.58,-1.37,-90.00,0.455,0.530,0.541,-0.468
4642596.000000,-0.996,-0.024,-0.148,0.03,-0.01,0.14,12.21,33.06,1.33,98.57,-1.37,-90.00,0.455,0.530,0.541,-0.468
4642606.000000,-0.997,-0.023,-0.147,0.05,0.07,0.05,11.88,33.18,1.13,98.57,-1.36,-90.00,0.455,0.530,0.541,-0.468
4642616.000000,-0.996,-0.026,-0.148,0.01,-0.05,0.01,11.75,34.02,1.38,98.57,-1.36,-90.00,0.455,0.530,0.541,-0.468
4642626.000000,-0.998,-0.024,-0.149,-0.01,-0.03,-0.01,11.79,33.92,1.25,98.57,-1.36,-90.00,0.455,0.530,0.541,-0.468
4642636.000000,-0.993,-0.026,-0.152,0.01,0.05,-0.07,11.64,34.06,1.04,98.57,-1.36,-90.00,0.455,0.530,0.541,-0.468
4642646.000000,-0.997,-0.024,-0.150,0.05,-0.03,0.03,11.88,33.68,0.88,98.57,-1.36,-90.00,0.455,0.530,0.541,-0.468
4642656.000000,-0.997,-0.023,-0.153,-0.05,0.05,0.01,11.42,34.33,1.50,98.57,-1.36,-90.00,0.455,0.530,0.541,-0.468
4642666.000000,-0.996,-0.023,-0.154,-0.03,0.09,-0.01,11.33,33.88,1.54,98.57,-1.36,-90.00,0.455,0.530,0.541,-0.468
4642676.000000,-0.997,-0.027,-0.149,0.07,-0.09,-0.11,11.50,33.92,1.46,98.57,-1.36,-90.00,0.455,0.530,0.541,-0.468
4642686.000000,-0.996,-0.024,-0.148,0.01,0.01,-0.09,11.50,33.98,1.54,98.57,-1.36,-90.00,0.455,0.530,0.541,-0.468
4642696.000000,-0.996,-0.024,-0.150,0.01,-0.05,0.01,11.75,34.29,1.63,98.57,-1.37,-90.00,0.455,0.530,0.541,-0.468
4642706.000000,-0.994,-0.024,-0.148,-0.03,-0.09,0.05,11.79,33.75,1.63,98.57,-1.37,-90.00,0.455,0.530,0.541,-0.468
4642716.000000,-0.996,-0.023,-0.149,-0.05,-0.07,0.01,11.60,34.02,1.58,98.57,-1.36,-90.00,0.455,0.530,0.541,-0.468
4642726.000000,-0.996,-0.026,-0.145,-0.03,0.03,0.03,12.48,34.25,1.67,98.57,-1.36,-90.00,0.455,0.530,0.541,-0.468
4642736.000000,-0.996,-0.021,-0.152,-0.01,-0.01,0.03,12.06,33.79,1.88,98.57,-1.36,-90.00,0.455,0.530,0.541,-0.468
4642746.000000,-0.994,-0.024,-0.148,0.03,-0.03,-0.05,12.14,34.02,1.71,98.57,-1.36,-90.00,0.455,0.530,0.541,-0.468
4642756.000000,-0.996,-0.022,-0.147,-0.01,0.12,0.05,12.29,33.60,1.38,98.57,-1.36,-90.00,0.455,0.530,0.541,-0.468
4642766.000000,-0.997,-0.024,-0.154,-0.01,0.01,-0.03,12.38,34.25,1.17,98.57,-1.36,-90.00,0.455,0.530,0.541,-0.468
4642776.000000,-0.997,-0.024,-0.148,0.03,0.09,0.03,11.75,33.92,1.33,98.57,-1.36,-90.00,0.455,0.530,0.541,-0.468
4642786.000000,-0.994,-0.023,-0.152,-0.01,0.09,-0.03,11.92,34.02,1.13,98.57,-1.36,-90.00,0.455,0.530,0.541,-0.468
4642796.000000,-0.993,-0.023,-0.150,-0.05,0.09,-0.01,11.88,33.88,1.75,98.57,-1.36,-90.00,0.455,0.530,0.541,-0.468
4642806.000000,-0.994,-0.023,-0.149,0.03,0.09,0.08,11.98,33.92,1.46,98.57,-1.36,-90.00,0.455,0.530,0.541,-0.468
4642816.000000,-0.996,-0.023,-0.150,-0.01,0.07,0.03,11.42,34.10,1.38,98.57,-1.36,-90.00,0.455,0.530,0.541,-0.468
4642826.000000,-0.996,-0.024,-0.150,-0.01,0.03,-0.07,11.42,34.25,1.21,98.57,-1.36,-90.00,0.455,0.530,0.541,-0.468
4642836.000000,-0.996,-0.026,-0.150,-0.01,-0.11,-0.01,11.68,34.21,1.42,98.57,-1.36,-90.00,0.455,0.530,0.541,-0.468
4642846.000000,-0.993,-0.022,-0.150,0.01,0.03,0.08,11.79,33.68,1.29,98.57,-1.36,-90.00,0.455,0.530,0.541,-0.468
4642856.000000,-0.993,-0.022,-0.150,-0.01,-0.03,0.01,11.68,34.29,1.79,98.57,-1.36,-90.00,0.455,0.530,0.541,-0.468
4642866.000000,-0.994,-0.024,-0.152,0.05,0.07,0.05,12.10,34.48,1.50,98.57,-1.36,-90.00,0.455,0.530,0.541,-0.468
4642876.000000,-0.994,-0.024,-0.149,0.07,0.03,-0.05,12.02,34.67,1.33,98.57,-1.36,-90.00,0.455,0.530,0.541,-0.468
4642886.000000,-0.994,-0.024,-0.150,0.09,-0.03,-0.09,12.02,34.43,1.33,98.57,-1.36,-90.00,0.455,0.530,0.541,-0.468
4642896.000000,-0.996,-0.023,-0.153,0.05,-0.01,0.01,11.50,34.52,1.17,98.57,-1.36,-90.00,0.455,0.530,0.541,-0.468
4642906.000000,-0.993,-0.026,-0.147,-0.05,0.07,0.01,11.98,34.75,1.58,98.57,-1.36,-90.00,0.455,0.530,0.541,-0.468
4642916.000000,-0.997,-0.024,-0.150,0.01,0.09,-0.07,11.83,34.60,1.42,98.57,-1.36,-90.00,0.455,0.530,0.541,-0.468
4642926.000000,-0.993,-0.023,-0.152,-0.05,0.18,0.01,11.92,34.02,1.58,98.57,-1.36,-90.00,0.455,0.530,0.541,-0.468
4642936.000000,-0.996,-0.023,-0.150,0.05,0.20,0.01,11.79,34.25,1.79,98.57,-1.36,-90.00,0.455,0.530,0.541,-0.468
4642946.000000,-0.997,-0.024,-0.150,0.03,-0.01,-0.01,11.88,33.98,1.75,98.57,-1.36,-90.00,0.455,0.530,0.541,-0.468
4642956.000000,-0.994,-0.026,-0.153,-0.03,0.03,-0.01,12.29,34.14,1.54,98.57,-1.36,-90.01,0.455,0.530,0.541,-0.468
4642966.000000,-0.996,-0.023,-0.148,0.03,-0.03,0.05,11.50,34.75,1.46,98.57,-1.36,-90.01,0.455,0.530,0.541,-0.468
4642976.000000,-0.996,-0.026,-0.150,0.03,0.05,-0.03,11.79,34.43,1.75,98.57,-1.36,-90.01,0.455,0.530,0.541,-0.468
4642986.000000,-0.994,-0.026,-0.150,0.03,-0.05,-0.03,11.68,34.79,1.63,98.57,-1.36,-90.01,0.455,0.530,0.541,-0.468
4642996.000000,-0.994,-0.026,-0.149,-0.03,0.18,0.01,11.60,34.75,1.67,98.57,-1.36,-90.01,0.455,0.530,0.541,-0.468
4643006.000000,-0.997,-0.023,-0.150,-0.05,0.01,-0.01,11.64,34.21,1.79,98.57,-1.36,-90.01,0.455,0.530,0.541,-0.468
4643016.000000,-0.997,-0.024,-0.148,0.13,0.01,0.07,11.42,34.52,1.21,98.57,-1.36,-90.00,0.455,0.530,0.541,-0.468
4643026.000000,-0.996,-0.022,-0.149,0.03,0.01,-0.01,11.23,34.33,1.92,98.57,-1.36,-90.01,0.455,0.530,0.541,-0.468
4643036.000000,-0.997,-0.023,-0.149,0.05,-0.03,-0.05,11.56,33.98,1.71,98.57,-1.36,-90.01,0.455,0.530,0.541,-0.468
4643046.000000,-0.997,-0.023,-0.150,0.01,0.05,-0.01,11.23,34.33,1.54,98.57,-1.36,-90.01,0.455,0.530,0.541,-0.468
4643056.000000,-0.996,-0.024,-0.150,0.05,0.09,0.07,11.38,34.29,1.33,98.57,-1.36,-90.01,0.455,0.530,0.541,-0.468
4643066.000000,-0.996,-0.024,-0.153,-0.01,-0.03,-0.03,11.38,34.29,1.33,98.57,-1.36,-90.01,0.455,0.530,0.541,-0.468
4643076.000000,-0.993,-0.027,-0.149,-0.01,-0.07,-0.09,11.98,33.83,1.79,98.57,-1.36,-90.01,0.455,0.530,0.541,-0.468
4643086.000000,-0.996,-0.022,-0.149,0.05,-0.01,-0.09,11.88,34.06,1.33,98.57,-1.36,-90.01,0.455,0.530,0.541,-0.468
4643096.000000,-0.997,-0.023,-0.149,0.03,0.16,0.01,12.14,34.25,1.25,98.57,-1.36,-90.01,0.455,0.530,0.541,-0.468
4643106.000000,-0.997,-0.026,-0.149,-0.11,0.01,-0.05,12.14,33.92,1.38,98.57,-1.36,-90.01,0.455,0.530,0.541,-0.468
4643116.000000,-0.993,-0.022,-0.150,-0.03,0.03,0.14,12.14,33.92,1.38,98.57,-1.36,-90.01,0.455,0.530,0.541,-0.468
4643126.000000,-0.993,-0.022,-0.154,0.01,0.07,-0.01,12.89,34.10,1.63,98.57,-1.36,-90.01,0.455,0.530,0.541,-0.468
4643136.000000,-0.997,-0.024,-0.150,-0.03,-0.01,-0.01,12.93,34.29,1.58,98.57,-1.36,-90.01,0.455,0.530,0.541,-0.468
4643146.000000,-0.994,-0.026,-0.148,0.05,0.07,0.05,12.93,34.29,1.75,98.57,-1.36,-90.01,0.455,0.530,0.541,-0.468
4643156.000000,-0.997,-0.024,-0.153,0.01,-0.01,0.05,12.43,34.38,1.38,98.57,-1.36,-90.01,0.455,0.530,0.541,-0.468
4643166.000000,-0.997,-0.023,-0.152,-0.01,-0.05,-0.03,12.43,34.38,1.38,98.57,-1.36,-90.01,0.455,0.530,0.541,-0.468
4643176.000000,-0.996,-0.024,-0.153,-0.01,-0.03,-0.01,12.10,33.64,1.38,98.57,-1.36,-90.01,0.455,0.530,0.541,-0.468
4643186.000000,-0.996,-0.026,-0.152,-0.05,0.01,-0.05,12.14,33.46,1.79,98.57,-1.36,-90.01,0.455,0.530,0.541,-0.468
4643196.000000,-0.996,-0.024,-0.150,-0.07,0.09,0.06,11.98,34.14,1.58,98.57,-1.36,-90.01,0.455,0.530,0.541,-0.468
4643206.000000,-0.996,-0.024,-0.149,0.01,0.07,-0.07,12.14,33.92,1.63,98.57,-1.36,-90.01,0.455,0.530,0.541,-0.468
4643216.000000,-0.996,-0.026,-0.152,-0.05,0.09,-0.03,12.14,33.92,1.63,98.57,-1.36,-90.01,0.455,0.530,0.541,-0.468
4643226.000000,-0.997,-0.024,-0.153,-0.01,0.18,-0.05,13.13,34.98,1.25,98.58,-1.36,-90.01,0.455,0.530,0.541,-0.468
4643236.000000,-0.998,-0.022,-0.149,-0.03,-0.07,-0.03,13.21,35.29,1.63,98.58,-1.36,-90.01,0.455,0.530,0.541,-0.468
4643246.000000,-0.998,-0.026,-0.152,0.01,-0.01,-0.05,13.29,34.89,1.38,98.58,-1.36,-90.00,0.455,0.530,0.541,-0.468
4643256.000000,-0.998,-0.024,-0.150,0.01,-0.01,-0.03,13.02,35.06,1.25,98.58,-1.36,-90.00,0.455,0.530,0.541,-0.468
4643266.000000,-0.996,-0.024,-0.150,0.05,0.01,0.03,13.02,35.06,1.25,98.58,-1.36,-90.00,0.455,0.530,0.541,-0.468
4643276.000000,-0.996,-0.024,-0.157,-0.01,-0.03,-0.01,12.52,34.38,1.63,98.58,-1.36,-90.01,0.455,0.530,0.541,-0.468
4643286.000000,-0.994,-0.024,-0.148,0.03,0.07,-0.01,12.14,33.98,1.71,98.58,-1.36,-90.01,0.455,0.530,0.541,-0.468
4643296.000000,-0.996,-0.024,-0.152,-0.01,0.14,-0.05,12.29,34.56,1.71,98.58,-1.36,-90.01,0.455,0.530,0.541,-0.468
4643306.000000,-0.994,-0.026,-0.149,-0.03,0.01,-0.07,12.33,34.56,1.33,98.58,-1.36,-90.01,0.455,0.530,0.541,-0.468
4643316.000000,-0.997,-0.022,-0.150,0.01,-0.11,0.07,12.33,34.56,1.33,98.58,-1.36,-90.00,0.455,0.530,0.541,-0.468
4643326.000000,-0.996,-0.024,-0.148,-0.13,-0.01,0.01,12.10,34.93,1.88,98.58,-1.36,-90.01,0.455,0.530,0.541,-0.468
4643336.000000,-0.994,-0.026,-0.148,0.07,0.07,-0.05,11.92,35.17,1.63,98.58,-1.36,-90.00,0.455,0.530,0.541,-0.468
4643346.000000,-0.993,-0.026,-0.149,0.05,-0.05,-0.09,11.46,35.21,1.67,98.58,-1.36,-90.00,0.455,0.530,0.541,-0.468
4643356.000000,-0.994,-0.023,-0.152,0.05,0.07,-0.05,12.02,34.71,1.88,98.58,-1.37,-90.00,0.455,0.530,0.541,-0.468
4643366.000000,-0.994,-0.027,-0.148,0.07,-0.21,0.01,12.02,34.71,1.88,98.58,-1.37,-90.00,0.455,0.530,0.541,-0.468
4643376.000000,-0.992,-0.022,-0.151,-0.13,0.01,0.08,12.60,34.79,1.25,98.58,-1.37,-90.01,0.455,0.530,0.541,-0.468
4643386.000000,-0.996,-0.023,-0.150,-0.03,0.03,-0.07,12.29,35.13,1.42,98.57,-1.37,-90.00,0.455,0.530,0.541,-0.468
4643396.000000,-0.994,-0.022,-0.149,0.07,0.07,-0.03,12.60,34.60,1.33,98.57,-1.37,-90.00,0.455,0.530,0.541,-0.468
4643406.000000,-0.996,-0.022,-0.149,-0.01,-0.09,0.01,12.60,34.60,1.33,98.57,-1.37,-90.00,0.455,0.530,0.541,-0.468
4643416.000000,-0.997,-0.022,-0.150,-0.05,0.07,-0.01,12.60,34.60,1.33,98.57,-1.37,-90.00,0.455,0.530,0.541,-0.468
4643426.000000,-0.993,-0.024,-0.148,-0.03,0.18,-0.13,11.75,34.38,1.46,98.57,-1.37,-90.00,0.455,0.530,0.541,-0.468
4643436.000000,-0.994,-0.023,-0.152,0.01,-0.07,-0.01,11.75,34.38,1.46,98.58,-1.37,-90.00,0.455,0.530,0.541,-0.468
4643446.000000,-0.997,-0.023,-0.152,0.05,0.03,0.07,11.75,34.38,1.46,98.57,-1.37,-90.00,0.455,0.530,0.541,-0.468
4643456.000000,-0.997,-0.027,-0.152,-0.03,0.12,-0.09,11.75,34.38,1.46,98.57,-1.37,-90.00,0.455,0.530,0.541,-0.468
4643466.000000,-0.996,-0.023,-0.148,0.01,0.07,-0.05,11.79,34.06,1.25,98.57,-1.37,-90.00,0.455,0.530,0.541,-0.468
4643476.000000,-0.996,-0.022,-0.149,-0.05,0.03,0.03,12.48,34.14,1.38,98.58,-1.37,-90.00,0.455,0.530,0.541,-0.468
4643486.000000,-0.994,-0.024,-0.147,-0.05,-0.19,-0.01,12.60,33.79,1.38,98.57,-1.37,-90.00,0.455,0.530,0.541,-0.468
4643496.000000,-0.996,-0.024,-0.148,-0.03,0.01,0.08,12.52,34.25,1.42,98.57,-1.37,-90.00,0.455,0.530,0.541,-0.468
4643506.000000,-0.996,-0.022,-0.152,-0.01,0.07,0.01,12.48,34.48,1.17,98.57,-1.37,-90.00,0.455,0.530,0.541,-0.468
4643516.000000,-0.997,-0.024,-0.147,-0.09,0.03,-0.01,12.52,34.29,1.25,98.57,-1.37,-90.00,0.455,0.530,0.541,-0.468
4643526.000000,-0.996,-0.023,-0.150,-0.07,0.01,0.03,11.56,34.25,1.54,98.57,-1.37,-90.00,0.455,0.530,0.541,-0.468
4643536.000000,-0.997,-0.023,-0.149,-0.03,0.03,0.03,12.10,33.88,1.54,98.57,-1.36,-90.00,0.455,0.530,0.541,-0.468
4643546.000000,-0.997,-0.026,-0.144,0.05,0.03,-0.03,11.46,34.33,1.25,98.57,-1.36,-90.00,0.455,0.530,0.541,-0.468
4643556.000000,-0.996,-0.026,-0.149,-0.07,0.03,-0.03,11.56,34.06,1.13,98.57,-1.36,-90.00,0.455,0.530,0.541,-0.468
4643566.000000,-0.996,-0.023,-0.149,0.01,-0.01,-0.05,11.60,33.98,1.42,98.57,-1.37,-90.00,0.455,0.530,0.541,-0.468
4643576.000000,-0.997,-0.024,-0.148,-0.13,0.09,0.04,10.77,34.21,1.63,98.57,-1.37,-90.00,0.455,0.530,0.541,-0.468
4643586.000000,-0.996,-0.022,-0.152,-0.01,0.07,0.08,10.88,34.25,1.29,98.57,-1.37,-90.00,0.455,0.530,0.541,-0.468
4643596.000000,-0.994,-0.026,-0.149,0.07,-0.07,-0.05,10.54,34.25,1.33,98.57,-1.37,-90.00,0.455,0.530,0.541,-0.468
4643606.000000,-0.996,-0.023,-0.152,0.07,-0.01,0.03,10.77,34.29,1.08,98.57,-1.37,-90.00,0.455,0.530,0.541,-0.468
4643616.000000,-0.998,-0.024,-0.147,-0.03,-0.01,0.12,10.50,34.29,1.42,98.57,-1.37,-90.00,0.455,0.530,0.541,-0.468
4643626.000000,-1.000,-0.022,-0.153,0.03,-0.07,0.07,12.02,34.33,1.67,98.57,-1.36,-90.00,0.455,0.530,0.541,-0.468
4643636.000000,-0.993,-0.024,-0.148,0.05,-0.03,-0.05,11.75,33.83,1.29,98.57,-1.36,-90.00,0.455,0.530,0.541,-0.468
4643646.000000,-0.996,-0.022,-0.150,0.01,0.07,-0.01,12.06,34.21,1.17,98.57,-1.36,-90.00,0.455,0.530,0.541,-0.468
4643656.000000,-0.997,-0.026,-0.148,-0.05,0.05,-0.03,12.21,33.88,1.42,98.57,-1.36,-90.00,0.455,0.530,0.541,-0.468
4643666.000000,-0.994,-0.024,-0.150,-0.07,0.03,-0.03,11.92,34.10,1.29,98.57,-1.36,-90.00,0.455,0.530,0.541,-0.468
4643676.000000,-0.993,-0.023,-0.150,0.07,0.07,-0.07,11.18,34.25,1.29,98.57,-1.37,-90.00,0.455,0.530,0.541,-0.468
4643686.000000,-0.994,-0.023,-0.150,-0.01,0.01,0.05,10.68,34.10,1.33,98.57,-1.37,-90.00,0.455,0.530,0.541,-0.468
4643696.000000,-0.997,-0.024,-0.147,-0.01,-0.07,0.01,10.77,33.88,1.46,98.57,-1.37,-90.00,0.455,0.530,0.541,-0.468
4643706.000000,-0.994,-0.024,-0.150,-0.01,0.07,0.01,10.88,34.25,1.54,98.57,-1.37,-90.00,0.455,0.530,0.541,-0.468
4643716.000000,-0.996,-0.024,-0.152,-0.01,-0.07,-0.05,10.92,34.02,1.46,98.57,-1.37,-90.00,0.455,0.530,0.541,-0.468
4643726.000000,-0.997,-0.022,-0.152,0.03,-0.03,0.16,11.00,34.48,1.63,98.57,-1.37,-90.00,0.455,0.530,0.541,-0.468
4643736.000000,-0.994,-0.027,-0.149,-0.01,-0.03,0.03,11.04,34.29,1.00,98.57,-1.37,-90.00,0.455,0.530,0.541,-0.468
4643746.000000,-0.994,-0.024,-0.148,0.05,-0.03,-0.03,10.68,34.10,1.13,98.57,-1.37,-90.00,0.455,0.530,0.541,-0.468
4643756.000000,-0.994,-0.024,-0.148,0.03,0.01,-0.03,11.00,34.43,0.88,98.57,-1.37,-90.00,0.455,0.530,0.541,-0.468
4643766.000000,-0.996,-0.023,-0.153,-0.03,-0.01,-0.01,10.50,34.48,1.08,98.57,-1.37,-90.00,0.455,0.530,0.541,-0.468
4643776.000000,-0.993,-0.024,-0.149,0.05,0.07,0.03,10.00,34.29,1.13,98.57,-1.37,-90.00,0.455,0.530,0.541,-0.468
4643786.000000,-0.996,-0.023,-0.152,-0.01,-0.01,0.05,9.73,34.25,1.54,98.57,-1.37,-90.00,0.455,0.530,0.541,-0.468
4643796.000000,-0.997,-0.021,-0.150,0.03,0.01,-0.01,9.58,34.06,1.29,98.57,-1.37,-90.00,0.455,0.530,0.541,-0.468
4643806.000000,-0.994,-0.024,-0.150,-0.03,-0.01,-0.03,9.63,34.38,1.13,98.57,-1.37,-90.00,0.455,0.530,0.541,-0.468
4643816.000000,-0.993,-0.026,-0.148,0.01,0.01,0.01,9.67,34.33,1.46,98.57,-1.37,-90.00,0.455,0.530,0.541,-0.468
4643826.000000,-0.996,-0.024,-0.150,-0.03,0.01,0.01,10.46,34.25,1.54,98.57,-1.36,-90.00,0.455,0.530,0.541,-0.468
4643836.000000,-0.994,-0.022,-0.150,0.11,0.09,-0.01,10.13,34.83,1.50,98.56,-1.36,-90.00,0.455,0.530,0.541,-0.468
4643846.000000,-0.996,-0.027,-0.148,-0.09,0.01,-0.05,9.81,34.75,1.54,98.57,-1.36,-90.00,0.455,0.530,0.541,-0.468
4643856.000000,-0.994,-0.022,-0.150,0.03,0.03,-0.03,10.04,34.93,1.63,98.57,-1.36,-90.00,0.455,0.530,0.541,-0.468
4643866.000000,-0.997,-0.023,-0.148,-0.01,0.01,0.03,10.23,34.52,1.04,98.57,-1.37,-90.00,0.455,0.530,0.541,-0.468
4643876.000000,-0.994,-0.024,-0.148,-0.05,0.07,0.01,11.14,34.52,1.42,98.57,-1.36,-90.00,0.455,0.530,0.541,-0.468
4643886.000000,-0.996,-0.023,-0.150,-0.03,-0.01,-0.01,11.00,34.48,1.58,98.57,-1.36,-90.00,0.455,0.530,0.541,-0.468
4643896.000000,-0.996,-0.023,-0.147,-0.01,-0.05,-0.03,10.92,34.43,0.92,98.57,-1.36,-90.00,0.455,0.530,0.541,-0.468
4643906.000000,-0.993,-0.026,-0.150,0.01,0.03,-0.05,10.77,34.33,1.50,98.57,-1.36,-90.00,0.455,0.530,0.541,-0.468
4643916.000000,-0.994,-0.023,-0.150,-0.01,0.01,0.12,10.96,34.21,1.71,98.57,-1.36,-90.00,0.455,0.530,0.541,-0.468
4643926.000000,-0.996,-0.024,-0.149,0.01,-0.11,-0.03,11.33,33.92,1.54,98.57,-1.36,-90.00,0.455,0.530,0.541,-0.468
4643936.000000,-0.997,-0.023,-0.149,0.05,0.01,-0.01,11.46,33.92,1.21,98.56,-1.36,-90.00,0.455,0.530,0.541,-0.468
4643946.000000,-0.994,-0.024,-0.149,0.03,-0.05,0.07,11.38,34.10,1.42,98.56,-1.36,-90.00,0.455,0.530,0.541,-0.468
4643956.000000,-0.996,-0.022,-0.152,-0.09,0.05,0.06,11.42,33.92,1.50,98.56,-1.36,-90.00,0.455,0.530,0.541,-0.468
4643966.000000,-0.997,-0.024,-0.148,0.07,-0.13,-0.13,11.10,34.33,1.25,98.56,-1.36,-90.00,0.455,0.530,0.541,-0.468
4643976.000000,-0.996,-0.024,-0.149,0.05,-0.01,-0.05,11.14,34.93,1.33,98.56,-1.36,-90.00,0.455,0.530,0.541,-0.468
4643986.000000,-0.996,-0.024,-0.150,-0.01,0.14,0.08,10.92,34.89,1.71,98.56,-1.36,-90.00,0.455,0.530,0.541,-0.468
4643996.000000,-0.993,-0.022,-0.148,-0.03,0.03,0.01,11.56,34.71,1.63,98.56,-1.36,-90.00,0.455,0.530,0.541,-0.468
4644006.000000,-0.998,-0.023,-0.149,0.01,-0.05,0.01,11.42,35.13,1.50,98.56,-1.36,-90.00,0.455,0.530,0.541,-0.468
4644016.000000,-0.994,-0.024,-0.145,-0.05,0.07,0.03,11.60,34.79,1.33,98.56,-1.36,-90.00,0.455,0.530,0.541,-0.468
4644026.000000,-0.993,-0.023,-0.152,0.05,-0.11,-0.03,10.46,34.21,1.42,98.56,-1.36,-90.00,0.455,0.530,0.541,-0.468
4644036.000000,-0.996,-0.023,-0.150,-0.11,-0.05,-0.03,10.68,34.14,1.21,98.56,-1.36,-90.00,0.455,0.530,0.541,-0.468
4644046.000000,-0.996,-0.026,-0.148,-0.03,-0.05,-0.09,10.58,34.29,1.67,98.56,-1.36,-90.00,0.455,0.530,0.541,-0.468
4644056.000000,-0.996,-0.022,-0.150,-0.03,0.03,0.08,10.54,34.06,1.71,98.56,-1.36,-90.00,0.455,0.530,0.541,-0.468
4644066.000000,-0.997,-0.024,-0.150,0.03,-0.01,0.03,10.64,34.14,1.46,98.56,-1.36,-90.00,0.455,0.530,0.541,-0.468
4644076.000000,-0.996,-0.021,-0.150,-0.01,0.03,-0.07,10.50,33.88,1.42,98.56,-1.36,-90.00,0.455,0.530,0.541,-0.468
4644086.000000,-0.998,-0.023,-0.149,0.03,0.07,-0.03,10.77,34.14,1.25,98.56,-1.36,-90.00,0.455,0.530,0.541,-0.468
4644096.000000,-0.994,-0.024,-0.152,0.01,0.03,-0.03,10.68,34.06,1.42,98.56,-1.36,-90.00,0.455,0.530,0.541,-0.468
4644106.000000,-0.996,-0.024,-0.150,0.09,0.03,0.05,10.77,34.33,1.63,98.56,-1.36,-90.00,0.455,0.530,0.541,-0.468
4644116.000000,-0.998,-0.024,-0.148,-0.05,0.03,0.01,10.88,34.43,1.38,98.56,-1.36,-90.00,0.455,0.530,0.541,-0.468
4644126.000000,-0.997,-0.023,-0.148,-0.03,0.18,0.01,10.31,34.38,1.54,98.56,-1.36,-90.00,0.455,0.530,0.541,-0.468
4644136.000000,-0.996,-0.021,-0.152,0.07,-0.03,0.03,10.42,34.06,1.38,98.56,-1.36,-90.00,0.455,0.530,0.541,-0.468
4644146.000000,-0.994,-0.026,-0.147,-0.01,0.01,-0.13,10.42,34.29,1.42,98.56,-1.36,-90.00,0.455,0.530,0.541,-0.468
4644156.000000,-0.994,-0.023,-0.152,0.01,-0.09,0.01,10.42,34.48,1.00,98.56,-1.36,-90.00,0.455,0.530,0.541,-0.468
4644166.000000,-0.994,-0.023,-0.147,-0.11,-0.05,-0.03,10.18,34.25,1.50,98.56,-1.36,-90.00,0.455,0.530,0.541,-0.468
4644176.000000,-0.997,-0.022,-0.149,-0.05,0.07,0.06,10.23,34.56,1.46,98.56,-1.36,-90.00,0.455,0.530,0.541,-0.468
4644186.000000,-0.993,-0.023,-0.150,-0.07,0.05,-0.03,10.35,34.02,1.71,98.56,-1.36,-90.00,0.455,0.530,0.541,-0.468
4644196.000000,-0.993,-0.026,-0.147,-0.05,0.05,0.01,9.89,34.56,1.54,98.56,-1.36,-90.00,0.455,0.530,0.541,-0.468
4644206.000000,-0.994,-0.024,-0.152,-0.07,-0.07,-0.07,10.23,34.14,1.92,98.56,-1.36,-90.00,0.455,0.530,0.541,-0.468
4644216.000000,-0.994,-0.023,-0.149,-0.01,0.03,0.08,10.00,33.92,1.54,98.56,-1.36,-90.00,0.455,0.530,0.541,-0.468
4644226.000000,-0.996,-0.024,-0.148,-0.03,0.09,0.03,10.27,33.88,1.58,98.56,-1.36,-90.00,0.455,0.530,0.541,-0.468
4644236.000000,-0.994,-0.024,-0.150,-0.05,0.12,-0.05,11.00,34.14,1.25,98.56,-1.36,-90.00,0.455,0.530,0.541,-0.468
4644246.000000,-0.996,-0.024,-0.150,-0.01,0.05,0.01,10.77,33.56,1.21,98.56,-1.36,-90.00,0.455,0.530,0.541,-0.468
4644256.000000,-0.992,-0.026,-0.149,0.13,-0.07,-0.05,10.58,34.02,1.54,98.56,-1.36,-90.00,0.455,0.530,0.541,-0.468
4644266.000000,-0.994,-0.024,-0.150,0.03,-0.03,0.01,10.77,34.25,0.96,98.56,-1.36,-90.00,0.455,0.530,0.541,-0.468
4644276.000000,-0.996,-0.023,-0.150,-0.07,-0.03,0.10,10.92,33.92,1.63,98.56,-1.36,-90.00,0.455,0.530,0.541,-0.468
4644286.000000,-0.996,-0.022,-0.149,-0.07,0.01,-0.01,11.27,34.10,1.79,98.56,-1.36,-90.00,0.455,0.530,0.541,-0.468
4644296.000000,-0.996,-0.024,-0.149,0.01,-0.03,0.05,11.04,34.25,1.42,98.56,-1.36,-90.00,0.455,0.530,0.541,-0.468
4644306.000000,-0.996,-0.023,-0.150,0.01,0.07,-0.13,11.18,34.06,1.29,98.56,-1.36,-90.00,0.455,0.530,0.541,-0.468
4644316.000000,-0.994,-0.023,-0.148,-0.05,0.18,0.10,11.04,34.25,1.38,98.56,-1.36,-90.00,0.455,0.530,0.541,-0.468
4644326.000000,-0.993,-0.022,-0.154,-0.01,0.14,0.05,10.04,33.92,1.33,98.56,-1.36,-90.00,0.455,0.530,0.541,-0.468
4644336.000000,-0.996,-0.023,-0.150,0.01,-0.11,0.03,9.89,34.21,1.38,98.56,-1.36,-90.00,0.455,0.530,0.541,-0.468
4644346.000000,-0.996,-0.023,-0.152,0.01,0.05,-0.01,10.13,33.68,1.46,98.56,-1.36,-90.00,0.455,0.530,0.541,-0.468
4644356.000000,-0.996,-0.023,-0.150,-0.03,0.05,0.03,10.13,33.75,1.29,98.56,-1.36,-90.00,0.455,0.530,0.541,-0.468
4644366.000000,-0.994,-0.021,-0.149,0.01,-0.03,-0.05,10.18,34.02,1.67,98.56,-1.36,-90.00,0.455,0.530,0.541,-0.468
4644376.000000,-0.993,-0.024,-0.149,-0.05,-0.03,0.06,11.14,34.14,1.50,98.56,-1.36,-90.00,0.455,0.530,0.541,-0.468
4644386.000000,-0.996,-0.026,-0.148,-0.03,-0.03,0.12,11.33,33.56,1.79,98.56,-1.36,-90.00,0.455,0.530,0.541,-0.468
4644396.000000,-0.996,-0.027,-0.152,0.09,-0.09,-0.09,11.27,33.68,1.58,98.56,-1.36,-90.00,0.455,0.530,0.541,-0.468
4644406.000000,-0.994,-0.024,-0.150,0.05,0.01,-0.11,11.10,33.75,1.88,98.56,-1.36,-90.00,0.455,0.530,0.541,-0.468
4644416.000000,-0.997,-0.024,-0.152,-0.01,-0.07,0.01,11.10,34.10,1.83,98.56,-1.36,-90.00,0.455,0.530,0.541,-0.468
4644426.000000,-0.996,-0.022,-0.149,0.03,-0.01,-0.01,11.46,34.10,1.50,98.56,-1.36,-90.00,0.455,0.530,0.541,-0.468
4644436.000000,-0.997,-0.022,-0.149,0.05,0.18,-0.03,11.10,34.21,1.33,98.56,-1.36,-90.00,0.455,0.530,0.541,-0.468
4644446.000000,-0.993,-0.024,-0.154,-0.03,-0.05,-0.01,11.14,34.10,1.83,98.56,-1.36,-90.00,0.455,0.530,0.541,-0.468
4644456.000000,-0.994,-0.023,-0.149,-0.03,0.01,0.12,11.23,34.33,1.63,98.56,-1.36,-90.00,0.455,0.530,0.541,-0.468
4644466.000000,-0.994,-0.024,-0.149,0.01,0.03,-0.01,11.46,34.06,1.33,98.56,-1.36,-90.00,0.455,0.530,0.541,-0.468
4644476.000000,-0.997,-0.026,-0.147,-0.07,-0.15,-0.03,10.92,34.21,1.67,98.56,-1.36,-90.00,0.455,0.530,0.541,-0.468
4644486.000000,-0.996,-0.024,-0.150,-0.09,-0.01,0.01,10.64,33.83,1.17,98.56,-1.36,-90.00,0.455,0.530,0.541,-0.468
4644496.000000,-0.994,-0.026,-0.148,-0.03,0.05,0.01,10.77,34.02,1.54,98.56,-1.36,-90.00,0.455,0.530,0.541,-0.468
4644506.000000,-0.994,-0.026,-0.148,-0.05,0.14,0.10,10.50,33.92,1.63,98.56,-1.36,-90.00,0.455,0.530,0.541,-0.468
4644516.000000,-0.997,-0.026,-0.149,-0.07,0.03,-0.05,10.64,33.60,1.58,98.56,-1.36,-90.00,0.455,0.530,0.541,-0.468
4644526.000000,-0.996,-0.022,-0.152,0.05,0.07,-0.03,11.50,34.48,1.46,98.56,-1.36,-90.00,0.455,0.530,0.541,-0.468
4644536.000000,-0.997,-0.026,-0.148,0.03,0.07,0.01,11.92,34.67,1.71,98.56,-1.36,-90.00,0.455,0.530,0.541,-0.468
4644546.000000,-0.994,-0.026,-0.149,-0.03,0.01,-0.07,11.33,34.38,1.88,98.56,-1.36,-90.00,0.455,0.530,0.541,-0.468
4644556.000000,-0.997,-0.022,-0.150,0.07,0.05,-0.01,11.50,34.33,1.63,98.56,-1.36,-90.00,0.455,0.530,0.541,-0.468
4644566.000000,-0.997,-0.026,-0.150,-0.09,0.03,0.14,11.60,34.02,1.67,98.56,-1.36,-90.00,0.455,0.530,0.541,-0.468
4644576.000000,-0.997,-0.026,-0.152,-0.01,0.14,0.12,10.81,34.02,1.38,98.56,-1.36,-90.00,0.455,0.530,0.541,-0.468
4644586.000000,-0.994,-0.023,-0.149,-0.11,-0.07,0.01,10.50,34.02,1.46,98.56,-1.36,-90.00,0.455,0.530,0.541,-0.468
4644596.000000,-0.998,-0.021,-0.149,0.03,0.03,-0.05,10.54,34.25,1.79,98.56,-1.36,-90.00,0.455,0.530,0.541,-0.468
4644606.000000,-0.993,-0.024,-0.148,0.05,0.03,0.01,10.35,34.02,1.54,98.56,-1.36,-90.00,0.455,0.530,0.541,-0.468
4644616.000000,-0.996,-0.024,-0.148,-0.01,-0.01,0.05,10.31,33.98,1.58,98.56,-1.36,-90.00,0.455,0.530,0.541,-0.468
4644626.000000,-0.997,-0.024,-0.150,-0.01,0.01,0.03,10.54,34.14,1.54,98.56,-1.36,-90.00,0.455,0.530,0.541,-0.468
4644636.000000,-0.996,-0.021,-0.150,0.07,0.01,-0.07,10.42,34.02,1.46,98.56,-1.36,-90.00,0.455,0.530,0.541,-0.468
4644646.000000,-0.993,-0.026,-0.149,-0.03,-0.03,-0.07,10.46,34.21,1.50,98.56,-1.36,-90.00,0.455,0.530,0.541,-0.468
4644656.000000,-0.997,-0.023,-0.152,0.11,0.20,-0.05,10.50,34.21,1.29,98.56,-1.36,-90.00,0.455,0.530,0.541,-0.468
4644666.000000,-0.996,-0.024,-0.149,0.01,-0.09,0.01,10.50,33.88,1.58,98.56,-1.36,-90.00,0.455,0.530,0.541,-0.468
4644676.000000,-0.996,-0.028,-0.148,-0.01,0.03,0.01,10.81,33.75,1.54,98.56,-1.36,-90.00,0.455,0.530,0.541,-0.468
4644686.000000,-0.996,-0.023,-0.150,-0.09,-0.07,0.01,10.68,33.38,1.46,98.56,-1.36,-90.00,0.455,0.530,0.541,-0.468
4644696.000000,-0.997,-0.024,-0.150,0.09,0.07,-0.07,10.68,33.60,1.67,98.56,-1.36,-90.00,0.455,0.530,0.541,-0.468
4644706.000000,-0.993,-0.024,-0.150,0.05,-0.09,0.01,10.50,33.83,1.63,98.56,-1.36,-90.00,0.455,0.530,0.541,-0.468
4644716.000000,-0.992,-0.024,-0.152,-0.09,0.01,0.08,10.88,33.75,1.46,98.56,-1.36,-90.00,0.455,0.530,0.541,-0.468
4644726.000000,-0.994,-0.024,-0.148,-0.01,0.09,0.10,10.42,34.10,1.63,98.56,-1.36,-90.00,0.455,0.530,0.541,-0.468
4644736.000000,-0.997,-0.026,-0.150,0.01,0.07,-0.03,10.13,34.02,2.04,98.56,-1.36,-90.00,0.455,0.530,0.541,-0.468
4644746.000000,-0.996,-0.024,-0.152,0.01,0.05,0.01,10.42,34.14,1.88,98.56,-1.36,-90.00,0.455,0.530,0.541,-0.468
4644756.000000,-0.994,-0.024,-0.150,0.01,-0.01,-0.03,10.50,34.10,2.00,98.56,-1.36,-90.00,0.455,0.530,0.541,-0.468
4644766.000000,-0.996,-0.023,-0.149,0.05,-0.03,0.05,10.23,34.25,1.71,98.56,-1.36,-90.00,0.455,0.530,0.541,-0.468
4644776.000000,-0.994,-0.023,-0.152,-0.01,-0.05,-0.07,10.54,34.02,1.58,98.56,-1.36,-90.00,0.455,0.530,0.541,-0.468
4644786.000000,-0.997,-0.027,-0.150,-0.01,-0.01,0.03,10.23,34.06,1.63,98.56,-1.36,-90.00,0.455,0.530,0.541,-0.468
4644796.000000,-0.997,-0.030,-0.147,-0.03,0.01,0.10,10.81,34.33,1.46,98.56,-1.36,-90.00,0.455,0.530,0.541,-0.468
4644806.000000,-0.994,-0.027,-0.148,-0.03,0.05,-0.05,10.58,34.06,1.50,98.56,-1.36,-90.00,0.455,0.530,0.541,-0.468
4644816.000000,-0.996,-0.023,-0.144,-0.01,0.01,0.03,10.58,33.88,1.25,98.56,-1.36,-90.00,0.455,0.530,0.541,-0.468
4644826.000000,-0.996,-0.021,-0.152,-0.11,-0.13,-0.13,10.54,33.98,1.50,98.56,-1.36,-90.00,0.455,0.530,0.541,-0.468
4644836.000000,-0.996,-0.026,-0.148,-0.05,0.09,0.03,10.92,33.68,1.25,98.56,-1.36,-90.00,0.455,0.530,0.541,-0.468
4644846.000000,-0.996,-0.022,-0.153,-0.09,-0.07,0.03,10.88,33.64,1.50,98.56,-1.36,-90.00,0.455,0.530,0.541,-0.468
4644856.000000,-1.000,-0.024,-0.150,0.05,-0.01,0.07,10.68,33.83,1.63,98.56,-1.36,-90.00,0.455,0.530,0.541,-0.468
4644866.000000,-0.996,-0.023,-0.150,-0.11,0.01,-0.03,10.73,33.83,1.79,98.56,-1.36,-90.00,0.455,0.530,0.541,-0.468
4644876.000000,-0.993,-0.022,-0.145,0.05,0.07,-0.05,10.81,34.48,1.46,98.56,-1.36,-90.00,0.455,0.530,0.541,-0.468
4644886.000000,-0.994,-0.023,-0.148,0.03,0.03,-0.09,11.00,34.25,1.63,98.56,-1.36,-90.00,0.455,0.530,0.541,-0.468
4644897.000000,-0.994,-0.024,-0.152,-0.07,-0.01,-0.03,10.88,34.38,1.50,98.56,-1.36,-90.00,0.455,0.530,0.541,-0.468
4644907.000000,-0.998,-0.023,-0.147,0.01,-0.05,0.01,10.77,33.88,1.58,98.56,-1.36,-90.00,0.455,0.530,0.541,-0.468
4644917.000000,-0.993,-0.024,-0.152,0.05,-0.09,-0.09,10.77,34.02,1.63,98.55,-1.36,-90.00,0.455,0.530,0.541,-0.468
4644927.000000,-0.997,-0.023,-0.154,-0.07,0.01,-0.03,11.10,33.92,1.58,98.55,-1.36,-90.00,0.455,0.530,0.541,-0.468
4644937.000000,-0.998,-0.023,-0.153,-0.09,0.05,-0.11,10.92,33.88,1.67,98.55,-1.37,-90.00,0.455,0.530,0.541,-0.468
4644947.000000,-0.996,-0.027,-0.147,0.03,0.01,0.05,10.88,33.92,1.71,98.55,-1.37,-90.00,0.455,0.530,0.541,-0.468
4644957.000000,-0.996,-0.023,-0.150,0.01,0.01,0.05,10.58,34.06,1.38,98.55,-1.37,-90.00,0.455,0.530,0.541,-0.468
4644967.000000,-0.993,-0.023,-0.147,0.03,0.03,-0.03,10.77,33.79,1.33,98.55,-1.37,-90.00,0.455,0.530,0.541,-0.468
4644977.000000,-0.996,-0.022,-0.150,-0.03,0.12,0.06,10.77,33.79,1.33,98.56,-1.37,-90.00,0.455,0.530,0.541,-0.468
4644987.000000,-0.996,-0.023,-0.144,0.07,0.14,-0.05,10.50,33.83,1.00,98.56,-1.37,-90.00,0.455,0.530,0.541,-0.468
4644997.000000,-0.994,-0.024,-0.152,-0.01,-0.09,0.08,10.23,33.68,1.58,98.56,-1.37,-90.00,0.455,0.530,0.541,-0.468
4645007.000000,-0.993,-0.024,-0.152,0.05,0.09,0.10,9.89,33.68,1.04,98.56,-1.36,-90.00,0.455,0.530,0.541,-0.468
4645017.000000,-0.994,-0.026,-0.152,-0.03,0.07,0.10,10.31,33.88,1.46,98.56,-1.36,-90.00,0.455,0.530,0.541,-0.468
4645027.000000,-0.996,-0.024,-0.150,-0.01,-0.07,-0.05,10.31,33.88,1.46,98.56,-1.36,-90.00,0.455,0.530,0.541,-0.468
4645037.000000,-0.994,-0.027,-0.152,0.09,0.05,-0.09,10.88,34.29,1.38,98.56,-1.36,-90.00,0.455,0.530,0.541,-0.468
4645047.000000,-0.997,-0.026,-0.150,0.01,0.03,0.01,10.54,34.38,1.67,98.56,-1.36,-90.00,0.455,0.530,0.541,-0.468
4645057.000000,-0.993,-0.026,-0.150,0.07,-0.07,0.03,10.31,34.25,1.29,98.56,-1.36,-90.00,0.455,0.530,0.541,-0.468
4645067.000000,-0.997,-0.026,-0.145,0.01,0.12,-0.05,10.58,34.48,1.88,98.56,-1.36,-90.00,0.455,0.530,0.541,-0.468
4645077.000000,-0.994,-0.024,-0.149,-0.05,-0.13,0.08,10.58,34.48,1.88,98.56,-1.36,-90.00,0.455,0.530,0.541,-0.468
4645087.000000,-0.996,-0.023,-0.149,-0.03,0.14,-0.03,11.56,33.64,1.83,98.55,-1.36,-90.00,0.455,0.530,0.541,-0.468
4645097.000000,-0.998,-0.023,-0.153,0.05,0.01,-0.01,11.23,33.98,1.88,98.56,-1.36,-90.00,0.455,0.530,0.541,-0.468
4645107.000000,-0.994,-0.026,-0.150,0.03,-0.07,-0.03,11.00,33.92,1.75,98.56,-1.36,-90.00,0.455,0.530,0.541,-0.468
4645117.000000,-0.997,-0.023,-0.148,-0.05,-0.01,0.06,10.77,33.83,1.71,98.56,-1.36,-90.00,0.455,0.530,0.541,-0.468
4645127.000000,-0.996,-0.023,-0.150,0.01,0.12,0.14,10.77,33.83,1.71,98.55,-1.36,-90.00,0.455,0.530,0.541,-0.468
4645137.000000,-0.993,-0.024,-0.150,0.03,0.01,-0.01,11.18,34.33,1.75,98.56,-1.36,-90.00,0.455,0.530,0.541,-0.468
4645147.000000,-0.998,-0.026,-0.150,-0.13,-0.03,-0.09,10.73,34.33,1.29,98.56,-1.36,-90.00,0.455,0.530,0.541,-0.468
4645157.000000,-0.997,-0.022,-0.147,-0.03,0.01,0.01,10.92,34.02,1.38,98.56,-1.36,-90.00,0.455,0.530,0.541,-0.468
4645167.000000,-0.993,-0.024,-0.152,0.01,0.01,0.03,10.77,34.10,1.25,98.56,-1.36,-90.00,0.455,0.530,0.541,-0.468
4645177.000000,-0.994,-0.023,-0.148,-0.03,0.07,-0.03,10.77,34.10,1.25,98.56,-1.36,-90.00,0.455,0.530,0.541,-0.468
4645187.000000,-0.997,-0.024,-0.149,-0.07,0.09,0.01,10.35,34.29,1.67,98.56,-1.36,-90.00,0.455,0.530,0.541,-0.468
4645197.000000,-0.998,-0.026,-0.148,0.05,0.03,-0.05,10.58,34.48,1.79,98.56,-1.36,-90.00,0.455,0.530,0.541,-0.468
4645207.000000,-0.993,-0.021,-0.149,0.09,0.05,-0.07,10.58,34.25,1.46,98.56,-1.36,-90.00,0.455,0.530,0.541,-0.468
4645217.000000,-0.993,-0.026,-0.149,0.05,-0.05,0.03,10.00,34.14,1.50,98.56,-1.36,-90.00,0.455,0.530,0.541,-0.468
4645227.000000,-0.993,-0.023,-0.153,-0.01,0.01,-0.01,10.00,34.14,1.50,98.56,-1.37,-90.00,0.455,0.530,0.541,-0.468
4645237.000000,-0.997,-0.026,-0.149,-0.01,0.05,0.08,9.96,33.88,1.75,98.56,-1.37,-90.00,0.455,0.530,0.541,-0.468
4645247.000000,-0.994,-0.024,-0.152,-0.03,0.03,-0.01,9.96,33.92,1.58,98.56,-1.36,-90.00,0.455,0.530,0.541,-0.468
4645257.000000,-0.993,-0.024,-0.149,-0.07,-0.01,-0.01,10.08,33.79,1.54,98.56,-1.37,-90.00,0.455,0.530,0.541,-0.468
4645267.000000,-0.996,-0.022,-0.152,0.03,-0.01,-0.01,9.85,33.46,1.54,98.56,-1.37,-90.00,0.455,0.530,0.541,-0.468
4645277.000000,-0.996,-0.024,-0.153,0.07,0.05,0.03,9.85,33.46,1.54,98.56,-1.36,-90.00,0.455,0.530,0.541,-0.468
4645287.000000,-0.997,-0.024,-0.150,0.07,0.05,-0.01,10.58,34.29,1.29,98.56,-1.36,-90.00,0.455,0.530,0.541,-0.468
4645297.000000,-0.996,-0.026,-0.152,0.07,-0.03,-0.03,10.58,34.02,1.42,98.56,-1.36,-90.00,0.455,0.530,0.541,-0.468
4645307.000000,-0.997,-0.024,-0.150,-0.09,-0.05,-0.05,10.77,33.46,1.13,98.56,-1.36,-90.00,0.455,0.530,0.541,-0.468
4645317.000000,-0.994,-0.023,-0.148,0.07,0.20,0.03,10.77,33.46,1.13,98.56,-1.37,-90.00,0.455,0.530,0.541,-0.468
4645327.000000,-0.994,-0.023,-0.150,0.05,0.01,-0.01,10.77,33.46,1.13,98.56,-1.37,-90.00,0.455,0.530,0.541,-0.468
4645337.000000,-0.996,-0.027,-0.152,-0.01,0.12,0.01,10.50,33.98,1.71,98.56,-1.37,-90.00,0.455,0.530,0.541,-0.468
4645347.000000,-0.997,-0.022,-0.153,0.03,0.07,0.03,10.50,33.98,1.71,98.56,-1.37,-90.00,0.455,0.530,0.541,-0.468
4645357.000000,-0.996,-0.024,-0.147,-0.05,-0.13,0.01,10.50,33.98,1.71,98.56,-1.37,-90.00,0.455,0.530,0.541,-0.468
4645367.000000,-0.993,-0.021,-0.154,-0.01,-0.07,0.03,10.50,33.98,1.71,98.56,-1.37,-90.00,0.455,0.530,0.541,-0.468
4645377.000000,-0.994,-0.023,-0.148,0.09,0.09,-0.05,10.68,34.10,1.29,98.56,-1.37,-90.00,0.455,0.530,0.541,-0.468
4645387.000000,-0.997,-0.026,-0.153,-0.05,0.07,-0.03,10.96,34.02,1.58,98.56,-1.37,-90.00,0.455,0.530,0.541,-0.468
4645397.000000,-0.996,-0.026,-0.150,0.07,0.07,-0.05,11.10,33.83,1.25,98.56,-1.37,-90.00,0.455,0.530,0.541,-0.468
4645407.000000,-0.997,-0.024,-0.148,-0.01,0.12,-0.03,11.27,33.75,1.50,98.56,-1.37,-90.00,0.455,0.530,0.541,-0.468
4645417.000000,-0.997,-0.023,-0.152,-0.07,-0.05,-0.01,11.23,33.52,1.50,98.56,-1.37,-90.00,0.455,0.530,0.541,-0.468
4645427.000000,-0.996,-0.024,-0.150,0.03,0.05,0.05,11.18,34.06,1.21,98.56,-1.37,-90.00,0.455,0.530,0.541,-0.468
4645437.000000,-0.996,-0.024,-0.149,-0.05,-0.11,-0.09,10.96,34.21,1.50,98.56,-1.37,-90.00,0.455,0.530,0.541,-0.468
4645447.000000,-0.996,-0.023,-0.150,0.09,0.01,-0.09,11.04,33.83,1.54,98.56,-1.37,-90.00,0.455,0.530,0.541,-0.468
4645457.000000,-0.994,-0.024,-0.153,0.05,0.03,0.07,11.14,33.98,1.63,98.56,-1.37,-90.00,0.455,0.530,0.541,-0.468
4645467.000000,-0.998,-0.024,-0.150,0.11,-0.01,-0.07,11.33,34.14,1.92,98.56,-1.37,-90.00,0.455,0.530,0.541,-0.468
4645477.000000,-0.996,-0.024,-0.152,0.03,-0.05,0.12,11.23,34.10,1.75,98.56,-1.37,-90.00,0.455,0.530,0.541,-0.468
4645487.000000,-0.998,-0.023,-0.148,-0.03,-0.01,-0.01,10.92,34.21,1.46,98.56,-1.37,-90.00,0.455,0.530,0.541,-0.468
4645497.000000,-0.997,-0.024,-0.152,-0.01,0.07,-0.13,10.68,34.29,1.21,98.56,-1.37,-90.00,0.455,0.530,0.541,-0.468
4645507.000000,-0.994,-0.024,-0.148,0.05,-0.07,-0.01,10.46,34.06,1.29,98.56,-1.37,-90.00,0.455,0.530,0.541,-0.468
4645517.000000,-0.996,-0.022,-0.147,-0.05,0.05,0.03,10.77,34.56,1.29,98.56,-1.37,-90.00,0.455,0.530,0.541,-0.468
4645527.000000,-0.997,-0.023,-0.149,0.01,0.01,0.03,10.54,34.60,1.58,98.56,-1.37,-90.00,0.455,0.530,0.541,-0.468
4645537.000000,-0.993,-0.024,-0.147,0.01,-0.07,-0.05,11.04,34.38,1.58,98.56,-1.37,-90.00,0.455,0.530,0.541,-0.468
4645547.000000,-0.996,-0.024,-0.149,0.09,-0.09,-0.05,11.18,34.10,1.04,98.56,-1.37,-90.00,0.455,0.530,0.541,-0.468
4645557.000000,-0.997,-0.023,-0.147,-0.03,0.03,0.01,11.00,34.10,1.29,98.56,-1.37,-90.00,0.455,0.530,0.541,-0.468
4645567.000000,-0.996,-0.028,-0.153,0.05,0.01,0.05,11.10,34.52,1.13,98.56,-1.37,-90.00,0.455,0.530,0.541,-0.468
4645577.000000,-0.996,-0.022,-0.149,0.03,0.01,-0.05,11.38,34.21,1.54,98.56,-1.37,-90.00,0.455,0.530,0.541,-0.468
4645587.000000,-0.997,-0.023,-0.148,0.03,-0.03,0.10,10.81,34.10,1.29,98.56,-1.37,-90.00,0.455,0.530,0.541,-0.468
4645597.000000,-0.994,-0.024,-0.153,0.03,0.07,-0.09,10.77,34.25,1.42,98.56,-1.37,-90.00,0.455,0.530,0.541,-0.468
4645607.000000,-0.996,-0.026,-0.150,-0.03,-0.11,-0.07,11.50,34.10,1.54,98.56,-1.37,-90.00,0.455,0.530,0.541,-0.468
4645617.000000,-0.992,-0.021,-0.152,0.03,0.01,0.03,10.68,34.10,1.38,98.56,-1.37,-90.00,0.455,0.530,0.541,-0.468
4645627.000000,-0.997,-0.022,-0.148,0.03,-0.03,-0.05,11.27,34.02,1.17,98.56,-1.37,-90.00,0.455,0.530,0.541,-0.468
4645637.000000,-0.992,-0.023,-0.151,0.01,-0.05,-0.01,10.73,34.21,1.38,98.56,-1.37,-90.00,0.455,0.530,0.541,-0.468
4645647.000000,-0.994,-0.022,-0.149,0.05,-0.07,-0.01,11.23,34.21,1.83,98.56,-1.37,-90.00,0.455,0.530,0.541,-0.468
4645657.000000,-0.996,-0.022,-0.150,0.07,-0.09,-0.05,11.14,34.38,1.67,98.56,-1.37,-90.00,0.455,0.530,0.541,-0.468
4645667.000000,-0.997,-0.023,-0.153,-0.05,-0.03,-0.09,11.10,33.88,1.79,98.55,-1.37,-90.00,0.455,0.530,0.541,-0.468
4645677.000000,-0.996,-0.022,-0.154,0.05,-0.05,0.07,11.23,34.02,1.33,98.55,-1.37,-90.00,0.455,0.530,0.541,-0.468
4645687.000000,-0.998,-0.024,-0.148,-0.03,0.05,0.03,10.46,34.06,1.50,98.55,-1.37,-90.00,0.455,0.530,0.541,-0.468
4645697.000000,-0.996,-0.022,-0.153,-0.05,0.09,0.10,10.23,33.88,1.42,98.56,-1.37,-90.00,0.455,0.530,0.541,-0.468
4645707.000000,-1.000,-0.024,-0.149,-0.01,0.05,-0.07,10.35,33.75,1.58,98.56,-1.37,-90.00,0.455,0.530,0.541,-0.468
4645717.000000,-0.996,-0.023,-0.148,-0.05,0.01,-0.01,10.42,33.88,1.46,98.56,-1.37,-90.00,0.455,0.530,0.541,-0.468
4645727.000000,-0.996,-0.023,-0.152,0.01,-0.07,0.01,10.08,33.75,1.42,98.56,-1.37,-90.00,0.455,0.530,0.541,-0.468
4645737.000000,-0.997,-0.023,-0.150,-0.09,-0.09,0.06,11.10,33.23,1.50,98.56,-1.37,-90.00,0.455,0.530,0.541,-0.468
4645747.000000,-0.994,-0.022,-0.152,-0.03,0.05,-0.03,11.04,33.29,1.54,98.55,-1.37,-90.00,0.455,0.530,0.541,-0.468
4645757.000000,-0.994,-0.022,-0.153,0.01,0.09,-0.05,11.10,33.68,1.46,98.55,-1.37,-90.00,0.455,0.530,0.541,-0.468
4645767.000000,-0.993,-0.024,-0.152,-0.05,-0.03,0.03,11.04,33.33,1.63,98.56,-1.37,-90.00,0.455,0.530,0.541,-0.468
4645777.000000,-0.997,-0.024,-0.150,0.07,0.03,0.10,11.00,33.88,1.54,98.56,-1.37,-90.00,0.455,0.530,0.541,-0.468
4645787.000000,-0.997,-0.024,-0.153,0.05,0.03,-0.03,12.02,34.10,1.46,98.56,-1.37,-90.00,0.455,0.530,0.541,-0.468
4645797.000000,-0.996,-0.024,-0.150,-0.07,0.18,-0.01,11.83,34.14,1.42,98.56,-1.37,-90.00,0.455,0.530,0.541,-0.468
4645807.000000,-0.997,-0.026,-0.148,0.01,-0.01,-0.05,11.88,34.48,1.50,98.56,-1.37,-90.00,0.455,0.530,0.541,-0.468
4645817.000000,-0.996,-0.023,-0.149,0.05,0.05,-0.07,11.92,34.56,1.58,98.56,-1.37,-90.00,0.455,0.530,0.541,-0.468
4645827.000000,-0.996,-0.026,-0.150,-0.07,-0.01,0.10,11.79,34.02,1.25,98.56,-1.37,-90.00,0.455,0.530,0.541,-0.468
4645837.000000,-0.993,-0.022,-0.148,0.03,0.05,0.03,12.38,33.98,1.54,98.56,-1.37,-90.00,0.455,0.530,0.541,-0.468
4645847.000000,-0.996,-0.022,-0.148,-0.05,0.09,-0.01,12.21,34.06,1.33,98.56,-1.37,-90.00,0.455,0.530,0.541,-0.468
4645857.000000,-0.994,-0.024,-0.150,-0.01,-0.01,-0.01,11.98,34.25,1.83,98.56,-1.37,-90.00,0.455,0.530,0.541,-0.468
4645867.000000,-0.997,-0.026,-0.154,0.03,-0.11,0.05,12.06,34.48,1.58,98.56,-1.37,-90.00,0.455,0.530,0.541,-0.468
4645877.000000,-0.998,-0.024,-0.152,-0.05,-0.05,-0.05,11.83,34.29,1.38,98.56,-1.37,-90.00,0.455,0.530,0.541,-0.468
4645887.000000,-0.993,-0.022,-0.150,0.01,0.09,0.03,10.81,34.14,1.38,98.56,-1.37,-90.00,0.455,0.530,0.541,-0.468
4645897.000000,-0.993,-0.022,-0.149,-0.03,0.03,-0.01,10.58,34.52,1.63,98.56,-1.37,-90.00,0.455,0.530,0.541,-0.468
4645907.000000,-0.996,-0.024,-0.150,0.01,0.18,-0.01,10.58,34.48,1.79,98.56,-1.37,-90.00,0.455,0.530,0.541,-0.468
4645917.000000,-0.997,-0.026,-0.149,-0.03,0.14,0.08,10.68,34.48,1.63,98.56,-1.37,-90.00,0.455,0.530,0.541,-0.468
4645927.000000,-0.996,-0.024,-0.152,-0.05,0.03,0.06,10.64,34.60,1.46,98.56,-1.37,-90.00,0.455,0.530,0.541,-0.468
4645937.000000,-0.996,-0.023,-0.148,0.09,-0.07,-0.09,11.10,33.68,1.75,98.56,-1.36,-90.00,0.455,0.530,0.541,-0.468
4645947.000000,-0.994,-0.027,-0.152,0.01,0.14,-0.01,11.27,33.68,1.54,98.56,-1.37,-90.00,0.455,0.530,0.541,-0.468
4645957.000000,-0.996,-0.024,-0.147,0.01,0.07,0.08,11.10,34.21,1.58,98.56,-1.37,-90.00,0.455,0.530,0.541,-0.468
4645967.000000,-0.996,-0.023,-0.152,-0.05,-0.01,-0.07,11.42,33.92,1.54,98.56,-1.37,-90.00,0.455,0.530,0.541,-0.468
4645977.000000,-0.994,-0.024,-0.150,0.03,0.05,-0.01,10.88,33.88,1.08,98.56,-1.37,-90.00,0.455,0.530,0.541,-0.468
4645987.000000,-0.994,-0.024,-0.149,0.03,0.05,0.07,11.64,33.60,1.38,98.56,-1.37,-90.00,0.455,0.530,0.541,-0.468
4645997.000000,-0.994,-0.026,-0.150,0.01,0.12,-0.03,11.79,33.64,1.42,98.56,-1.37,-90.00,0.455,0.530,0.541,-0.468
4646007.000000,-0.997,-0.023,-0.152,-0.09,0.12,0.06,11.46,33.68,1.75,98.56,-1.37,-90.00,0.455,0.530,0.541,-0.468
4646017.000000,-0.996,-0.023,-0.153,0.01,-0.07,-0.05,11.38,33.75,2.04,98.56,-1.36,-90.00,0.455,0.530,0.541,-0.468
4646027.000000,-0.993,-0.023,-0.147,-0.03,-0.01,0.05,11.60,33.68,1.54,98.56,-1.37,-90.00,0.455,0.530,0.541,-0.468
4646037.000000,-0.993,-0.024,-0.149,0.01,0.05,-0.01,11.75,34.14,1.46,98.56,-1.36,-90.00,0.455,0.530,0.541,-0.468
4646047.000000,-0.996,-0.026,-0.150,0.01,-0.05,0.10,11.64,34.25,1.67,98.56,-1.36,-90.00,0.455,0.530,0.541,-0.468
4646057.000000,-0.993,-0.022,-0.150,0.03,-0.01,-0.01,12.25,34.38,1.38,98.56,-1.36,-90.00,0.455,0.530,0.541,-0.468
4646067.000000,-0.996,-0.021,-0.153,-0.05,0.01,0.03,12.02,34.56,1.75,98.56,-1.36,-90.00,0.455,0.530,0.541,-0.468
4646077.000000,-0.997,-0.027,-0.147,-0.03,0.12,-0.03,11.38,33.83,1.46,98.56,-1.36,-90.00,0.455,0.530,0.541,-0.468
4646087.000000,-0.997,-0.024,-0.152,0.03,0.01,0.05,11.27,34.67,1.33,98.56,-1.36,-90.00,0.455,0.530,0.541,-0.468
4646097.000000,-0.997,-0.021,-0.147,0.05,-0.15,-0.03,11.04,34.60,1.63,98.56,-1.36,-90.00,0.455,0.530,0.541,-0.468
4646107.000000,-0.994,-0.024,-0.152,-0.03,0.05,-0.05,11.38,34.98,1.63,98.56,-1.36,-90.00,0.455,0.530,0.541,-0.468
4646117.000000,-0.997,-0.022,-0.150,0.07,0.07,0.14,11.04,34.60,1.83,98.56,-1.36,-90.00,0.455,0.530,0.541,-0.468
4646127.000000,-0.993,-0.023,-0.152,0.01,-0.01,-0.05,11.18,34.67,1.58,98.56,-1.36,-90.00,0.455,0.530,0.541,-0.468
4646137.000000,-0.996,-0.024,-0.148,0.03,0.09,0.05,10.73,33.88,1.54,98.56,-1.36,-90.00,0.455,0.530,0.541,-0.468
4646147.000000,-0.994,-0.023,-0.152,0.01,0.09,0.03,10.73,34.10,1.46,98.56,-1.36,-90.00,0.455,0.530,0.541,-0.468
4646157.000000,-0.996,-0.024,-0.150,0.03,0.09,-0.03,11.14,33.75,1.25,98.56,-1.36,-90.00,0.455,0.530,0.541,-0.468
4646167.000000,-0.997,-0.024,-0.150,0.01,-0.09,0.01,11.18,33.56,1.33,98.56,-1.36,-90.00,0.455,0.530,0.541,-0.468
4646177.000000,-0.994,-0.024,-0.147,-0.01,0.03,-0.03,10.73,33.79,1.42,98.56,-1.36,-90.00,0.455,0.530,0.541,-0.468
4646187.000000,-0.994,-0.023,-0.149,-0.05,0.07,-0.01,11.83,34.25,1.50,98.56,-1.36,-90.00,0.455,0.530,0.541,-0.468
4646197.000000,-0.996,-0.023,-0.153,0.01,0.03,-0.03,11.46,34.33,1.29,98.56,-1.36,-90.00,0.455,0.530,0.541,-0.468
4646207.000000,-0.997,-0.024,-0.150,0.07,-0.03,0.05,12.02,34.10,1.71,98.56,-1.36,-90.00,0.455,0.530,0.541,-0.468
4646217.000000,-0.996,-0.024,-0.150,-0.01,-0.09,0.01,12.29,34.98,1.42,98.56,-1.36,-90.00,0.455,0.530,0.541,-0.468
4646227.000000,-0.996,-0.024,-0.150,0.07,-0.07,0.05,12.06,34.75,1.71,98.56,-1.36,-90.00,0.455,0.530,0.541,-0.468
4646237.000000,-0.993,-0.022,-0.148,0.05,0.03,-0.03,11.38,34.33,1.54,98.56,-1.36,-90.00,0.455,0.530,0.541,-0.468
4646247.000000,-0.996,-0.026,-0.153,-0.07,-0.03,-0.01,10.96,34.38,1.71,98.56,-1.36,-90.00,0.455,0.530,0.541,-0.468
4646257.000000,-0.996,-0.027,-0.149,-0.03,-0.05,-0.05,11.46,34.52,1.58,98.56,-1.36,-90.00,0.455,0.530,0.541,-0.468
4646267.000000,-0.994,-0.023,-0.145,-0.05,0.01,-0.01,11.38,34.38,1.71,98.56,-1.36,-90.00,0.455,0.530,0.541,-0.468
4646277.000000,-0.996,-0.024,-0.153,-0.07,-0.09,0.08,11.27,34.48,1.46,98.56,-1.36,-90.00,0.455,0.530,0.541,-0.468
4646287.000000,-0.997,-0.023,-0.149,-0.03,-0.05,-0.03,11.38,34.25,1.54,98.56,-1.36,-90.00,0.455,0.530,0.541,-0.468
4646297.000000,-0.996,-0.027,-0.149,-0.01,0.14,-0.03,11.38,34.02,1.46,98.56,-1.36,-90.00,0.455,0.530,0.541,-0.468
4646307.000000,-0.996,-0.026,-0.154,-0.07,-0.03,0.06,11.50,34.21,1.92,98.56,-1.36,-90.00,0.455,0.530,0.541,-0.468
4646317.000000,-0.996,-0.023,-0.150,-0.01,-0.09,0.03,11.33,34.06,1.46,98.56,-1.36,-90.00,0.455,0.530,0.541,-0.468
4646327.000000,-0.997,-0.022,-0.152,-0.15,-0.03,-0.03,11.79,34.25,1.50,98.56,-1.36,-90.00,0.455,0.530,0.541,-0.468
4646337.000000,-0.996,-0.026,-0.148,0.01,-0.01,-0.01,11.64,34.21,1.63,98.56,-1.36,-90.00,0.455,0.530,0.541,-0.468
4646347.000000,-0.993,-0.023,-0.150,0.03,0.05,-0.01,11.98,34.48,1.38,98.56,-1.36,-90.00,0.455,0.530,0.541,-0.468
4646357.000000,-0.997,-0.024,-0.152,0.03,0.03,-0.07,11.27,34.29,1.54,98.56,-1.36,-90.00,0.455,0.530,0.541,-0.468
4646367.000000,-0.994,-0.026,-0.152,-0.01,0.16,0.06,11.75,34.29,1.50,98.56,-1.37,-90.00,0.455,0.530,0.541,-0.468
4646377.000000,-0.996,-0.026,-0.149,0.03,0.07,0.07,12.21,34.71,1.42,98.56,-1.37,-90.00,0.455,0.530,0.541,-0.468
4646387.000000,-0.992,-0.023,-0.151,-0.07,-0.09,-0.01,11.18,34.21,1.67,98.56,-1.36,-90.00,0.455,0.530,0.541,-0.468
4646397.000000,-0.996,-0.026,-0.147,0.07,0.20,0.07,10.88,33.68,1.42,98.56,-1.36,-90.00,0.455,0.530,0.541,-0.468
4646407.000000,-0.994,-0.023,-0.148,0.01,0.05,-0.19,11.38,34.06,1.13,98.56,-1.36,-90.00,0.455,0.530,0.541,-0.468
4646417.000000,-0.994,-0.024,-0.150,0.01,0.09,0.01,10.96,33.79,1.29,98.56,-1.37,-90.00,0.455,0.530,0.541,-0.468
4646427.000000,-0.993,-0.024,-0.148,0.07,-0.09,0.03,11.18,33.98,1.63,98.56,-1.37,-90.00,0.455,0.530,0.541,-0.468
4646437.000000,-0.996,-0.023,-0.150,-0.13,0.03,0.04,10.88,34.38,1.50,98.56,-1.37,-90.00,0.455,0.530,0.541,-0.468
4646447.000000,-0.994,-0.023,-0.153,-0.09,-0.13,0.03,10.92,34.33,1.46,98.56,-1.37,-90.00,0.455,0.530,0.541,-0.468
4646457.000000,-0.996,-0.022,-0.152,0.07,0.01,-0.01,10.58,34.14,1.50,98.56,-1.36,-90.00,0.455,0.530,0.541,-0.468
4646467.000000,-0.997,-0.023,-0.148,0.07,0.05,-0.01,10.92,34.79,1.63,98.56,-1.36,-90.00,0.455,0.530,0.541,-0.468
4646477.000000,-0.996,-0.026,-0.152,0.03,-0.01,0.05,10.88,34.21,1.58,98.56,-1.36,-90.00,0.455,0.530,0.541,-0.468
4646487.000000,-0.994,-0.024,-0.149,-0.01,0.07,0.05,12.25,34.21,1.50,98.56,-1.36,-90.00,0.455,0.530,0.541,-0.468
4646497.000000,-0.994,-0.023,-0.148,0.01,-0.03,0.01,12.25,34.43,1.13,98.56,-1.36,-90.00,0.455,0.530,0.541,-0.468
4646507.000000,-0.996,-0.026,-0.148,0.03,0.05,-0.05,11.83,34.52,1.04,98.56,-1.36,-90.00,0.455,0.530,0.541,-0.468
4646517.000000,-0.996,-0.023,-0.145,0.11,-0.15,0.05,12.14,34.38,1.38,98.56,-1.36,-90.00,0.455,0.530,0.541,-0.468
4646527.000000,-0.994,-0.024,-0.150,-0.01,-0.05,0.05,12.33,34.06,1.25,98.56,-1.36,-90.00,0.455,0.530,0.541,-0.468
4646537.000000,-0.996,-0.023,-0.149,-0.03,0.09,-0.03,11.23,33.56,1.38,98.56,-1.36,-90.00,0.455,0.530,0.541,-0.468
4646547.000000,-0.993,-0.023,-0.152,-0.01,0.12,-0.05,11.18,33.29,1.25,98.56,-1.36,-90.00,0.455,0.530,0.541,-0.468
4646557.000000,-0.994,-0.026,-0.149,0.09,0.12,-0.05,11.50,33.64,1.50,98.56,-1.36,-90.00,0.455,0.530,0.541,-0.468
4646567.000000,-0.993,-0.026,-0.148,0.03,0.07,-0.09,11.14,33.42,1.29,98.56,-1.37,-90.00,0.455,0.530,0.541,-0.468
4646577.000000,-0.994,-0.023,-0.147,0.03,0.12,-0.05,10.96,33.10,1.63,98.56,-1.37,-90.00,0.455,0.530,0.541,-0.468
4646587.000000,-0.996,-0.022,-0.152,-0.03,0.05,0.08,11.98,34.06,1.50,98.56,-1.37,-90.00,0.455,0.530,0.541,-0.468
4646597.000000,-0.997,-0.022,-0.150,0.01,0.07,0.01,11.98,34.21,1.42,98.56,-1.37,-90.00,0.455,0.530,0.541,-0.468
4646607.000000,-0.994,-0.023,-0.150,-0.07,0.01,0.06,12.06,34.21,1.67,98.56,-1.37,-90.00,0.455,0.530,0.541,-0.468
4646617.000000,-0.997,-0.024,-0.149,0.01,0.03,-0.03,11.68,34.29,1.54,98.56,-1.37,-90.00,0.455,0.530,0.541,-0.468
4646627.000000,-0.993,-0.022,-0.150,0.05,-0.01,0.07,11.68,34.43,1.38,98.56,-1.37,-90.00,0.455,0.530,0.541,-0.468
