TimeStamp,AccX,AccY,AccZ,GyrX,GyrY,GyrZ,MagX,MagY,MagZ,Roll,Pitch,Yaw,Qw,Qx,Qy,Qz
1005616.000000,0.007,-0.036,1.005,0.11,-0.09,-0.13,-3.71,-29.13,-20.54,-0.44,-2.10,67.07,0.833,-0.013,-0.013,0.552
1005626.000000,0.007,-0.036,1.010,-0.01,-0.03,0.10,-3.79,-29.21,-20.25,-0.44,-2.10,67.07,0.833,-0.013,-0.013,0.552
1005636.000000,0.002,-0.034,1.010,0.03,-0.11,-0.03,-4.43,-28.75,-20.33,-0.44,-2.10,67.07,0.833,-0.013,-0.013,0.552
1005646.000000,0.008,-0.038,1.007,-0.03,0.01,0.08,-4.67,-28.39,-20.33,-0.44,-2.10,67.07,0.833,-0.013,-0.013,0.552
1005656.000000,0.010,-0.035,1.003,0.07,-0.01,-0.03,-4.35,-28.63,-20.29,-0.44,-2.10,67.07,0.833,-0.013,-0.013,0.552
1005666.000000,0.007,-0.036,1.007,-0.09,0.09,0.08,-4.48,-28.48,-20.21,-0.44,-2.10,67.07,0.833,-0.013,-0.013,0.552
1005676.000000,0.004,-0.036,1.005,0.01,-0.07,0.03,-4.17,-28.71,-20.17,-0.44,-2.10,67.07,0.833,-0.013,-0.013,0.552
1005686.000000,0.008,-0.035,1.009,-0.07,0.01,0.03,-3.79,-28.93,-20.17,-0.44,-2.10,67.07,0.833,-0.013,-0.013,0.552
1005696.000000,0.010,-0.035,1.007,-0.07,-0.05,-0.05,-3.67,-28.93,-20.13,-0.44,-2.10,67.07,0.833,-0.013,-0.013,0.552
1005706.000000,0.004,-0.035,1.010,0.13,0.14,-0.07,-4.02,-28.98,-20.04,-0.44,-2.10,67.07,0.833,-0.013,-0.013,0.552
1005716.000000,0.008,-0.036,1.010,-0.01,0.05,-0.07,-4.35,-29.08,-20.38,-0.44,-2.10,67.07,0.833,-0.013,-0.013,0.552
1005726.000000,0.010,-0.036,1.007,0.03,0.12,0.08,-4.13,-29.13,-20.04,-0.44,-2.10,67.07,0.833,-0.013,-0.013,0.552
1005736.000000,0.006,-0.039,1.011,-0.01,0.03,-0.13,-2.98,-29.08,-20.21,-0.44,-2.10,67.07,0.833,-0.013,-0.013,0.552
1005746.000000,0.010,-0.039,1.009,0.05,0.20,-0.03,-3.10,-28.58,-19.92,-0.44,-2.10,67.07,0.833,-0.013,-0.013,0.552
1005756.000000,0.007,-0.036,1.006,0.01,0.07,0.05,-2.98,-28.93,-20.29,-0.43,-2.10,67.07,0.833,-0.013,-0.013,0.552
1005766.000000,0.010,-0.036,1.011,-0.01,-0.05,0.01,-3.29,-28.71,-20.38,-0.43,-2.10,67.07,0.833,-0.013,-0.013,0.552
1005776.000000,0.010,-0.036,1.009,-0.03,-0.03,0.05,-2.98,-28.43,-20.25,-0.43,-2.10,67.07,0.833,-0.013,-0.013,0.552
1005786.000000,0.007,-0.036,1.006,-0.01,-0.09,-0.03,-3.10,-29.13,-20.33,-0.43,-2.10,67.07,0.833,-0.013,-0.013,0.552
1005796.000000,0.006,-0.036,1.010,-0.05,0.07,-0.05,-2.83,-28.85,-20.13,-0.43,-2.10,67.07,0.833,-0.013,-0.013,0.552
1005806.000000,0.008,-0.035,1.005,-0.03,-0.01,0.01,-2.98,-28.85,-19.79,-0.43,-2.10,67.07,0.833,-0.013,-0.013,0.552
1005816.000000,0.007,-0.036,1.003,-0.05,0.07,-0.01,-2.83,-28.58,-19.92,-0.43,-2.10,67.07,0.833,-0.013,-0.013,0.552
1005826.000000,0.008,-0.038,1.009,-0.01,-0.01,-0.01,-2.83,-28.75,-20.13,-0.43,-2.10,67.07,0.833,-0.013,-0.013,0.552
1005836.000000,0.008,-0.036,1.007,-0.09,0.18,-0.01,-2.64,-28.25,-20.46,-0.43,-2.10,67.07,0.833,-0.013,-0.013,0.552
1005846.000000,0.010,-0.036,1.007,0.09,0.14,0.05,-2.14,-28.25,-20.33,-0.43,-2.10,67.07,0.833,-0.013,-0.013,0.552
1005856.000000,0.010,-0.036,1.011,-0.09,0.03,0.01,-2.29,-28.48,-20.13,-0.43,-2.10,67.07,0.833,-0.013,-0.013,0.552
1005866.000000,0.010,-0.036,1.010,0.09,0.20,-0.01,-2.29,-28.81,-20.50,-0.43,-2.10,67.07,0.833,-0.013,-0.013,0.552
1005876.000000,0.007,-0.039,1.011,0.11,0.01,0.05,-2.10,-28.75,-20.21,-0.43,-2.10,67.07,0.833,-0.013,-0.013,0.552
1005886.000000,0.007,-0.036,1.013,-0.07,0.03,0.03,-3.21,-29.39,-20.13,-0.43,-2.10,67.07,0.833,-0.013,-0.013,0.552
1005896.000000,0.008,-0.036,1.007,0.03,0.09,-0.05,-3.21,-29.77,-20.33,-0.43,-2.10,67.07,0.833,-0.013,-0.013,0.552
1005906.000000,0.008,-0.038,1.009,-0.01,0.03,0.03,-3.48,-29.13,-20.00,-0.43,-2.10,67.07,0.833,-0.013,-0.013,0.552
1005916.000000,0.006,-0.036,1.006,0.03,0.01,-0.01,-3.21,-29.54,-20.42,-0.43,-2.10,67.07,0.833,-0.013,-0.013,0.552
1005926.000000,0.006,-0.036,1.013,0.01,0.05,0.01,-2.98,-29.54,-20.08,-0.43,-2.10,67.07,0.833,-0.013,-0.013,0.552
1005936.000000,0.007,-0.035,1.009,0.05,0.05,0.07,-2.75,-29.43,-20.42,-0.43,-2.10,67.07,0.833,-0.013,-0.013,0.552
1005946.000000,0.007,-0.038,1.006,0.03,0.09,0.01,-3.29,-29.48,-20.17,-0.43,-2.10,67.07,0.833,-0.013,-0.013,0.552
1005956.000000,0.008,-0.036,1.007,0.07,0.01,-0.03,-2.88,-29.43,-20.25,-0.43,-2.10,67.07,0.833,-0.013,-0.013,0.552
1005966.000000,0.004,-0.036,1.011,-0.05,0.18,0.06,-2.75,-29.43,-20.25,-0.43,-2.10,67.07,0.833,-0.013,-0.013,0.552
1005976.000000,0.006,-0.036,1.009,0.01,0.09,-0.07,-2.93,-29.17,-20.17,-0.43,-2.10,67.07,0.833,-0.013,-0.013,0.552
1005986.000000,0.006,-0.036,1.007,-0.01,0.01,-0.09,-3.21,-29.35,-20.25,-0.43,-2.10,67.07,0.833,-0.013,-0.013,0.552
1005996.000000,0.008,-0.035,1.014,-0.13,-0.01,0.04,-3.21,-29.58,-19.79,-0.43,-2.10,67.07,0.833,-0.013,-0.013,0.552
1006006.000000,0.004,-0.039,1.010,-0.05,-0.09,-0.05,-2.93,-29.43,-19.96,-0.42,-2.10,67.07,0.833,-0.013,-0.013,0.552
1006016.000000,0.007,-0.038,1.010,0.01,-0.03,0.03,-2.98,-29.77,-20.29,-0.43,-2.10,67.07,0.833,-0.013,-0.013,0.552
1006026.000000,0.004,-0.036,1.007,-0.01,0.01,0.05,-3.10,-29.67,-19.88,-0.43,-2.10,67.07,0.833,-0.013,-0.013,0.552
1006036.000000,0.006,-0.035,1.006,0.01,-0.01,0.01,-3.89,-28.81,-20.17,-0.43,-2.10,67.07,0.833,-0.013,-0.013,0.552
1006046.000000,0.008,-0.034,1.007,-0.01,0.03,-0.13,-3.85,-28.81,-20.21,-0.43,-2.10,67.07,0.833,-0.013,-0.013,0.552
1006056.000000,0.007,-0.036,1.011,0.05,0.16,-0.01,-3.93,-29.43,-20.50,-0.43,-2.10,67.07,0.833,-0.013,-0.013,0.552
1006066.000000,0.008,-0.039,1.009,-0.03,0.09,0.08,-3.85,-29.21,-20.17,-0.42,-2.10,67.07,0.833,-0.013,-0.013,0.552
1006076.000000,0.010,-0.035,1.009,0.05,0.16,0.07,-3.93,-28.85,-20.08,-0.42,-2.10,67.07,0.833,-0.013,-0.013,0.552
1006086.000000,0.010,-0.036,1.007,0.05,-0.07,-0.07,-3.56,-29.81,-20.25,-0.42,-2.10,67.07,0.833,-0.013,-0.013,0.552
1006096.000000,0.008,-0.036,1.009,0.03,0.14,-0.01,-3.85,-29.71,-20.04,-0.42,-2.10,67.07,0.833,-0.013,-0.013,0.552
1006106.000000,0.008,-0.039,1.010,0.05,0.01,0.10,-3.85,-29.54,-20.13,-0.42,-2.10,67.07,0.833,-0.013,-0.013,0.552
1006116.000000,0.011,-0.036,1.010,0.03,0.09,0.01,-3.56,-29.63,-20.00,-0.42,-2.10,67.07,0.833,-0.013,-0.013,0.552
1006126.000000,0.008,-0.035,1.007,0.01,0.12,-0.07,-3.85,-29.54,-20.04,-0.42,-2.10,67.07,0.833,-0.013,-0.013,0.552
1006136.000000,0.008,-0.039,1.011,0.01,0.01,-0.03,-3.98,-28.75,-20.25,-0.42,-2.10,67.07,0.833,-0.013,-0.013,0.552
1006146.000000,0.010,-0.036,1.009,-0.01,0.01,0.05,-4.02,-28.75,-20.54,-0.42,-2.10,67.07,0.833,-0.013,-0.013,0.552
1006156.000000,0.008,-0.038,1.006,-0.07,0.05,0.06,-4.08,-28.98,-20.04,-0.42,-2.10,67.07,0.833,-0.013,-0.013,0.552
1006166.000000,0.007,-0.038,1.009,-0.01,-0.03,-0.03,-4.58,-28.71,-20.21,-0.42,-2.10,67.07,0.833,-0.013,-0.013,0.552
1006176.000000,0.007,-0.039,1.011,0.07,-0.05,-0.03,-3.79,-28.52,-20.29,-0.42,-2.10,67.07,0.833,-0.013,-0.013,0.552
1006186.000000,0.010,-0.036,1.010,0.03,0.09,-0.01,-4.31,-28.75,-20.46,-0.42,-2.10,67.07,0.833,-0.013,-0.013,0.552
1006196.000000,0.007,-0.036,1.009,-0.03,-0.01,0.08,-3.89,-29.08,-20.46,-0.42,-2.10,67.07,0.833,-0.013,-0.013,0.552
1006206.000000,0.008,-0.038,1.009,-0.05,-0.01,-0.07,-3.89,-28.89,-20.33,-0.42,-2.10,67.08,0.833,-0.013,-0.013,0.552
1006216.000000,0.007,-0.035,1.009,-0.13,-0.05,0.04,-4.43,-29.13,-20.71,-0.42,-2.10,67.07,0.833,-0.013,-0.013,0.552
1006226.000000,0.008,-0.040,1.009,-0.05,-0.13,0.03,-4.21,-29.04,-20.50,-0.42,-2.10,67.08,0.833,-0.013,-0.013,0.552
1006236.000000,0.008,-0.036,1.006,0.05,-0.01,0.01,-4.08,-28.63,-20.17,-0.42,-2.10,67.08,0.833,-0.013,-0.013,0.552
1006246.000000,0.010,-0.038,1.006,-0.09,-0.05,-0.03,-3.98,-28.93,-20.08,-0.43,-2.10,67.08,0.833,-0.013,-0.013,0.552
1006256.000000,0.008,-0.034,1.006,0.03,-0.03,0.05,-3.93,-28.85,-20.17,-0.43,-2.10,67.07,0.833,-0.013,-0.013,0.552
1006266.000000,0.007,-0.036,1.011,-0.01,-0.07,-0.05,-4.13,-28.98,-20.08,-0.43,-2.10,67.08,0.833,-0.013,-0.013,0.552
1006276.000000,0.008,-0.038,1.006,-0.05,-0.01,-0.05,-4.08,-28.71,-20.00,-0.43,-2.10,67.07,0.833,-0.013,-0.013,0.552
1006286.000000,0.007,-0.038,1.010,-0.01,-0.07,-0.03,-3.25,-28.67,-20.25,-0.43,-2.10,67.07,0.833,-0.013,-0.013,0.552
1006296.000000,0.008,-0.035,1.010,0.03,-0.05,-0.05,-3.06,-28.58,-20.50,-0.43,-2.10,67.07,0.833,-0.013,-0.013,0.552
1006306.000000,0.007,-0.036,1.009,-0.05,0.09,-0.01,-2.83,-28.67,-20.42,-0.43,-2.10,67.07,0.833,-0.013,-0.013,0.552
1006316.000000,0.007,-0.036,1.011,0.05,-0.01,0.05,-3.10,-28.81,-20.29,-0.43,-2.10,67.07,0.833,-0.013,-0.013,0.552
1006326.000000,0.007,-0.035,1.006,0.05,-0.07,-0.07,-3.29,-28.93,-20.42,-0.43,-2.10,67.07,0.833,-0.013,-0.013,0.552
1006336.000000,0.007,-0.039,1.005,-0.07,0.05,0.03,-3.52,-28.67,-20.13,-0.43,-2.10,67.07,0.833,-0.013,-0.013,0.552
1006346.000000,0.004,-0.036,1.010,0.05,0.01,0.05,-3.29,-29.04,-20.63,-0.43,-2.10,67.07,0.833,-0.013,-0.013,0.552
1006356.000000,0.003,-0.038,1.009,0.03,0.07,-0.01,-2.98,-28.75,-20.38,-0.43,-2.10,67.07,0.833,-0.013,-0.013,0.552
1006366.000000,0.007,-0.034,1.006,0.05,0.03,-0.01,-3.33,-28.75,-20.38,-0.43,-2.10,67.07,0.833,-0.013,-0.013,0.552
1006376.000000,0.007,-0.036,1.005,-0.01,0.09,-0.07,-3.39,-28.93,-20.75,-0.43,-2.10,67.07,0.833,-0.013,-0.013,0.552
1006386.000000,0.008,-0.038,1.006,0.11,-0.05,-0.11,-3.89,-27.83,-20.17,-0.43,-2.10,67.07,0.833,-0.013,-0.013,0.552
1006396.000000,0.007,-0.039,1.007,-0.09,0.01,-0.01,-4.35,-28.13,-20.17,-0.43,-2.10,67.07,0.833,-0.013,-0.013,0.552
1006406.000000,0.008,-0.038,1.005,0.01,0.16,0.12,-4.17,-28.21,-20.13,-0.43,-2.10,67.07,0.833,-0.013,-0.013,0.552
1006416.000000,0.007,-0.036,1.007,-0.05,0.01,-0.01,-4.43,-28.39,-20.46,-0.43,-2.10,67.07,0.833,-0.013,-0.013,0.552
1006426.000000,0.006,-0.039,1.013,0.05,-0.09,0.14,-3.98,-28.13,-20.50,-0.42,-2.10,67.07,0.833,-0.013,-0.013,0.552
1006436.000000,0.008,-0.035,1.007,0.05,-0.07,-0.03,-3.33,-28.71,-20.13,-0.43,-2.10,67.07,0.833,-0.013,-0.013,0.552
1006446.000000,0.010,-0.036,1.005,0.01,0.03,-0.01,-3.25,-28.98,-20.50,-0.43,-2.10,67.07,0.833,-0.013,-0.013,0.552
1006456.000000,0.008,-0.036,1.010,-0.05,0.01,-0.05,-3.43,-28.89,-20.21,-0.43,-2.10,67.07,0.833,-0.013,-0.013,0.552
1006466.000000,0.006,-0.039,1.006,0.05,0.05,0.05,-3.52,-28.67,-20.21,-0.43,-2.10,67.07,0.833,-0.013,-0.013,0.552
1006476.000000,0.007,-0.038,1.010,-0.03,0.12,-0.01,-3.56,-28.75,-20.50,-0.43,-2.10,67.07,0.833,-0.013,-0.013,0.552
1006486.000000,0.006,-0.036,1.009,0.03,0.05,-0.07,-3.02,-28.93,-20.29,-0.43,-2.10,67.07,0.833,-0.013,-0.013,0.552
1006496.000000,0.006,-0.038,1.006,0.01,0.07,0.03,-3.29,-28.75,-20.25,-0.43,-2.10,67.07,0.833,-0.013,-0.013,0.552
1006506.000000,0.008,-0.036,1.010,-0.03,0.07,0.01,-3.21,-28.81,-20.17,-0.42,-2.10,67.07,0.833,-0.013,-0.013,0.552
1006516.000000,0.010,-0.036,1.011,-0.01,0.09,-0.01,-2.88,-29.13,-20.50,-0.42,-2.10,67.07,0.833,-0.013,-0.013,0.552
1006526.000000,0.008,-0.038,1.009,-0.03,0.01,-0.05,-3.06,-28.81,-20.04,-0.42,-2.10,67.07,0.833,-0.013,-0.013,0.552
1006536.000000,0.011,-0.038,1.011,0.09,0.07,0.03,-3.93,-28.48,-20.21,-0.42,-2.10,67.07,0.833,-0.013,-0.013,0.552
1006546.000000,0.007,-0.039,1.011,0.01,0.12,0.14,-3.43,-28.39,-20.21,-0.42,-2.10,67.07,0.833,-0.013,-0.013,0.552
1006556.000000,0.006,-0.038,1.010,-0.03,0.07,-0.01,-3.98,-28.75,-20.42,-0.42,-2.10,67.08,0.833,-0.013,-0.013,0.552
1006566.000000,0.004,-0.036,1.007,-0.01,0.03,0.08,-3.89,-28.67,-20.13,-0.42,-2.10,67.08,0.833,-0.013,-0.013,0.552
1006576.000000,0.010,-0.038,1.006,0.03,0.01,0.01,-3.75,-28.39,-20.29,-0.42,-2.10,67.08,0.833,-0.013,-0.013,0.552
1006586.000000,0.007,-0.036,1.009,0.03,0.01,0.07,-4.39,-28.85,-20.04,-0.42,-2.10,67.08,0.833,-0.013,-0.013,0.552
1006596.000000,0.007,-0.036,1.007,0.07,0.05,-0.03,-4.08,-29.04,-19.67,-0.42,-2.10,67.08,0.833,-0.013,-0.013,0.552
1006606.000000,0.010,-0.035,1.005,0.03,0.01,0.05,-4.31,-29.08,-20.04,-0.42,-2.10,67.08,0.833,-0.013,-0.013,0.552
1006616.000000,0.008,-0.039,1.011,-0.03,0.01,-0.09,-4.02,-29.04,-19.75,-0.42,-2.10,67.08,0.833,-0.013,-0.013,0.552
1006626.000000,0.010,-0.038,1.010,-0.01,-0.13,0.03,-4.43,-28.89,-19.88,-0.42,-2.10,67.08,0.833,-0.013,-0.013,0.552
1006636.000000,0.008,-0.036,1.006,0.01,0.09,0.08,-3.98,-29.04,-20.54,-0.42,-2.10,67.08,0.833,-0.013,-0.013,0.552
1006646.000000,0.010,-0.036,1.006,-0.05,0.03,-0.03,-3.89,-28.93,-20.00,-0.42,-2.10,67.08,0.833,-0.013,-0.013,0.552
1006656.000000,0.008,-0.035,1.010,-0.07,0.03,-0.03,-3.67,-28.58,-19.83,-0.42,-2.10,67.08,0.833,-0.013,-0.013,0.552
1006666.000000,0.007,-0.036,1.009,-0.07,-0.09,0.01,-4.17,-29.04,-19.63,-0.42,-2.10,67.08,0.833,-0.013,-0.013,0.552
1006676.000000,0.007,-0.036,1.011,-0.05,0.09,0.06,-4.35,-29.08,-20.13,-0.42,-2.10,67.08,0.833,-0.013,-0.013,0.552
1006686.000000,0.010,-0.035,1.005,0.03,-0.01,0.03,-3.67,-29.21,-20.33,-0.42,-2.10,67.08,0.833,-0.013,-0.013,0.552
1006696.000000,0.011,-0.035,1.007,0.09,0.01,-0.01,-3.89,-29.17,-20.29,-0.42,-2.10,67.08,0.833,-0.013,-0.013,0.552
1006706.000000,0.007,-0.039,1.007,0.05,0.12,-0.05,-4.21,-28.81,-20.54,-0.42,-2.10,67.08,0.833,-0.013,-0.013,0.552
1006716.000000,0.010,-0.038,1.011,-0.09,0.05,0.04,-4.25,-28.81,-20.08,-0.42,-2.10,67.08,0.833,-0.013,-0.013,0.552
1006726.000000,0.006,-0.035,1.009,-0.03,0.12,0.10,-3.93,-29.04,-20.21,-0.42,-2.10,67.08,0.833,-0.013,-0.013,0.552
1006736.000000,0.008,-0.036,1.003,0.01,0.09,-0.09,-3.85,-27.98,-20.38,-0.42,-2.10,67.08,0.833,-0.013,-0.013,0.552
1006746.000000,0.006,-0.036,1.011,-0.05,-0.05,-0.05,-4.21,-27.98,-20.04,-0.42,-2.10,67.08,0.833,-0.013,-0.013,0.552
1006756.000000,0.008,-0.035,1.006,0.01,0.01,-0.07,-3.79,-28.35,-19.75,-0.42,-2.10,67.08,0.833,-0.013,-0.013,0.552
1006766.000000,0.008,-0.038,1.007,0.11,0.03,0.05,-3.79,-28.21,-19.92,-0.42,-2.10,67.08,0.833,-0.013,-0.013,0.552
1006776.000000,0.006,-0.038,1.010,0.05,0.07,-0.05,-3.75,-28.17,-20.13,-0.42,-2.10,67.08,0.833,-0.013,-0.013,0.552
1006786.000000,0.008,-0.036,1.011,0.07,-0.07,-0.09,-3.29,-28.21,-20.33,-0.42,-2.10,67.08,0.833,-0.013,-0.013,0.552
1006796.000000,0.008,-0.035,1.003,0.01,-0.03,-0.03,-3.10,-28.02,-19.75,-0.42,-2.10,67.08,0.833,-0.013,-0.013,0.552
1006806.000000,0.006,-0.036,1.011,-0.05,-0.09,0.01,-3.33,-28.63,-20.17,-0.42,-2.10,67.08,0.833,-0.013,-0.013,0.552
1006816.000000,0.006,-0.035,1.010,0.03,0.12,-0.05,-3.29,-28.29,-20.42,-0.42,-2.10,67.08,0.833,-0.013,-0.013,0.552
1006826.000000,0.006,-0.038,1.007,-0.07,0.03,-0.03,-3.10,-28.43,-20.29,-0.42,-2.10,67.08,0.833,-0.013,-0.013,0.552
1006836.000000,0.006,-0.038,1.007,0.07,0.01,-0.01,-3.56,-29.85,-20.25,-0.42,-2.10,67.08,0.833,-0.013,-0.013,0.552
1006846.000000,0.004,-0.036,1.009,-0.03,-0.03,-0.03,-3.67,-29.81,-20.17,-0.42,-2.10,67.08,0.833,-0.013,-0.013,0.552
1006856.000000,0.008,-0.038,1.005,-0.11,-0.09,0.04,-3.79,-29.48,-20.21,-0.42,-2.10,67.08,0.833,-0.013,-0.013,0.552
1006866.000000,0.008,-0.038,1.005,0.09,0.01,-0.07,-3.71,-29.77,-19.96,-0.42,-2.10,67.08,0.833,-0.013,-0.013,0.552
1006876.000000,0.006,-0.036,1.011,-0.05,0.09,0.03,-3.67,-29.89,-19.92,-0.42,-2.10,67.08,0.833,-0.013,-0.013,0.552
1006886.000000,0.006,-0.038,1.007,-0.07,-0.03,-0.01,-3.89,-29.54,-20.25,-0.42,-2.10,67.08,0.833,-0.013,-0.013,0.552
1006896.000000,0.008,-0.036,1.009,-0.03,-0.07,0.01,-3.79,-29.39,-20.25,-0.42,-2.10,67.08,0.833,-0.013,-0.013,0.552
1006906.000000,0.003,-0.036,1.009,0.03,0.09,-0.05,-4.08,-29.31,-20.21,-0.43,-2.10,67.08,0.833,-0.013,-0.013,0.552
1006916.000000,0.008,-0.036,1.009,-0.05,0.07,0.03,-4.31,-29.31,-20.38,-0.43,-2.10,67.08,0.833,-0.013,-0.013,0.552
1006926.000000,0.008,-0.036,1.011,0.05,-0.09,-0.01,-4.39,-29.35,-20.54,-0.42,-2.10,67.08,0.833,-0.013,-0.013,0.552
1006936.000000,0.007,-0.036,1.010,-0.09,-0.05,0.08,-4.13,-29.63,-20.13,-0.43,-2.10,67.08,0.833,-0.013,-0.013,0.552
1006946.000000,0.006,-0.035,1.011,0.05,-0.05,-0.05,-4.35,-29.67,-20.08,-0.43,-2.10,67.08,0.833,-0.013,-0.013,0.552
1006956.000000,0.011,-0.036,1.003,-0.03,-0.03,0.10,-4.58,-29.48,-20.00,-0.43,-2.10,67.08,0.833,-0.013,-0.013,0.552
1006966.000000,0.008,-0.038,1.010,-0.09,0.01,-0.07,-4.02,-29.43,-20.13,-0.43,-2.10,67.08,0.833,-0.013,-0.013,0.552
1006976.000000,0.006,-0.036,1.009,-0.05,-0.05,0.01,-4.35,-29.54,-19.92,-0.43,-2.10,67.08,0.833,-0.013,-0.013,0.552
1006986.000000,0.003,-0.035,1.010,-0.03,-0.07,0.05,-4.58,-29.27,-20.13,-0.43,-2.10,67.08,0.833,-0.013,-0.013,0.552
1006996.000000,0.007,-0.035,1.009,0.03,0.03,0.03,-4.67,-29.08,-20.17,-0.43,-2.10,67.08,0.833,-0.013,-0.013,0.552
1007006.000000,0.008,-0.035,1.006,-0.11,0.14,0.04,-4.63,-29.71,-20.21,-0.43,-2.10,67.08,0.833,-0.013,-0.013,0.552
1007016.000000,0.007,-0.035,1.011,-0.03,0.14,0.08,-4.77,-29.48,-20.00,-0.43,-2.10,67.08,0.833,-0.013,-0.013,0.552
1007026.000000,0.010,-0.039,1.010,-0.01,-0.01,-0.07,-4.58,-29.39,-19.92,-0.43,-2.10,67.08,0.833,-0.013,-0.013,0.552
1007036.000000,0.007,-0.039,1.006,0.01,-0.07,0.03,-4.58,-29.39,-19.92,-0.43,-2.10,67.08,0.833,-0.013,-0.013,0.552
1007046.000000,0.008,-0.039,1.009,-0.05,-0.03,-0.05,-4.67,-29.81,-20.46,-0.43,-2.10,67.08,0.833,-0.013,-0.013,0.552
1007056.000000,0.007,-0.038,1.006,0.09,0.05,0.05,-4.21,-29.85,-20.63,-0.43,-2.10,67.08,0.833,-0.013,-0.013,0.552
1007066.000000,0.010,-0.035,1.007,0.01,0.03,0.03,-4.35,-29.77,-20.46,-0.43,-2.10,67.08,0.833,-0.013,-0.013,0.552
1007076.000000,0.008,-0.038,1.006,0.01,0.03,0.01,-4.35,-30.00,-20.17,-0.43,-2.10,67.08,0.833,-0.013,-0.013,0.552
1007086.000000,0.007,-0.038,1.011,-0.05,-0.01,-0.01,-4.35,-30.00,-20.17,-0.43,-2.10,67.08,0.833,-0.013,-0.013,0.552
1007096.000000,0.006,-0.039,1.013,-0.03,0.01,-0.01,-4.08,-28.48,-20.50,-0.43,-2.10,67.08,0.833,-0.013,-0.013,0.552
1007106.000000,0.010,-0.039,1.007,-0.01,0.03,-0.01,-4.02,-28.63,-20.04,-0.43,-2.10,67.08,0.833,-0.013,-0.013,0.552
1007116.000000,0.007,-0.038,1.007,-0.11,-0.01,-0.03,-4.21,-28.63,-20.17,-0.43,-2.10,67.08,0.833,-0.013,-0.013,0.552
1007126.000000,0.008,-0.036,1.009,0.05,0.03,0.07,-4.21,-28.75,-20.33,-0.43,-2.11,67.08,0.833,-0.013,-0.013,0.552
1007136.000000,0.011,-0.036,1.006,-0.07,0.20,-0.03,-4.21,-28.75,-20.33,-0.43,-2.11,67.08,0.833,-0.013,-0.013,0.552
1007146.000000,0.007,-0.036,1.007,0.07,0.05,0.01,-3.39,-28.89,-20.42,-0.43,-2.11,67.08,0.833,-0.013,-0.013,0.552
1007156.000000,0.008,-0.036,1.011,-0.01,0.05,0.03,-3.67,-29.27,-20.29,-0.43,-2.11,67.08,0.833,-0.013,-0.013,0.552
1007166.000000,0.004,-0.035,1.007,0.03,0.12,0.01,-3.48,-28.75,-20.33,-0.43,-2.11,67.08,0.833,-0.013,-0.013,0.552
1007176.000000,0.008,-0.036,1.009,0.03,-0.01,-0.01,-3.39,-28.81,-20.33,-0.42,-2.10,67.08,0.833,-0.013,-0.013,0.552
1007186.000000,0.010,-0.038,1.003,0.03,0.05,-0.01,-3.39,-28.81,-20.33,-0.42,-2.10,67.08,0.833,-0.013,-0.013,0.552
1007196.000000,0.011,-0.038,1.003,0.01,0.12,-0.03,-3.71,-29.08,-20.21,-0.42,-2.10,67.08,0.833,-0.013,-0.013,0.552
1007206.000000,0.007,-0.038,1.007,0.05,-0.01,0.10,-3.71,-28.98,-20.13,-0.42,-2.10,67.08,0.833,-0.013,-0.013,0.552
1007216.000000,0.003,-0.038,1.011,-0.01,0.03,-0.05,-3.67,-29.21,-20.42,-0.42,-2.10,67.08,0.833,-0.013,-0.013,0.552
1007226.000000,0.008,-0.036,1.010,-0.05,0.01,0.08,-3.71,-28.85,-20.38,-0.42,-2.10,67.08,0.833,-0.013,-0.013,0.552
1007236.000000,0.010,-0.035,1.006,0.07,0.01,0.05,-3.71,-28.85,-20.38,-0.42,-2.10,67.08,0.833,-0.013,-0.013,0.552
1007246.000000,0.010,-0.038,1.006,-0.03,0.09,-0.03,-3.75,-28.39,-20.46,-0.42,-2.10,67.08,0.833,-0.013,-0.013,0.552
1007256.000000,0.011,-0.035,1.007,0.01,0.01,0.10,-3.25,-28.35,-20.25,-0.42,-2.10,67.08,0.833,-0.013,-0.013,0.552
1007266.000000,0.008,-0.036,1.009,0.03,-0.07,-0.01,-3.48,-28.75,-20.33,-0.42,-2.10,67.08,0.833,-0.013,-0.013,0.552
1007276.000000,0.010,-0.036,1.011,0.01,0.03,-0.07,-3.10,-28.52,-20.33,-0.42,-2.10,67.08,0.833,-0.013,-0.013,0.552
1007286.000000,0.010,-0.036,1.011,0.05,-0.03,-0.03,-3.10,-28.52,-20.33,-0.42,-2.10,67.08,0.833,-0.013,-0.013,0.552
1007296.000000,0.006,-0.036,1.007,0.05,0.03,0.01,-4.31,-28.39,-20.42,-0.42,-2.10,67.08,0.833,-0.013,-0.013,0.552
1007307.000000,0.007,-0.038,1.009,0.05,0.07,-0.01,-4.31,-28.43,-20.46,-0.42,-2.10,67.08,0.833,-0.013,-0.013,0.552
1007317.000000,0.010,-0.035,1.007,-0.11,0.03,0.04,-4.17,-28.35,-20.17,-0.42,-2.10,67.08,0.833,-0.013,-0.013,0.552
1007327.000000,0.011,-0.036,1.007,-0.03,0.03,0.10,-4.13,-28.58,-19.96,-0.42,-2.10,67.08,0.833,-0.013,-0.013,0.552
1007337.000000,0.008,-0.036,1.003,-0.01,0.05,0.01,-4.13,-28.58,-19.96,-0.42,-2.10,67.08,0.833,-0.013,-0.013,0.552
1007347.000000,0.006,-0.035,1.013,-0.03,0.03,0.03,-3.79,-28.06,-20.17,-0.42,-2.10,67.08,0.833,-0.013,-0.013,0.552
1007357.000000,0.008,-0.036,1.006,0.05,0.07,-0.01,-4.13,-27.89,-20.29,-0.42,-2.10,67.08,0.833,-0.013,-0.013,0.552
1007367.000000,0.007,-0.036,1.011,0.01,-0.03,-0.01,-4.13,-27.89,-20.29,-0.42,-2.10,67.08,0.833,-0.013,-0.013,0.552
1007377.000000,0.008,-0.036,1.009,0.13,0.05,0.03,-4.13,-27.89,-20.29,-0.42,-2.10,67.08,0.833,-0.013,-0.013,0.552
1007387.000000,0.010,-0.038,1.003,-0.09,0.05,0.04,-4.13,-27.89,-20.29,-0.42,-2.10,67.08,0.833,-0.013,-0.013,0.552
1007397.000000,0.010,-0.035,1.010,0.11,0.01,0.05,-3.48,-28.13,-20.67,-0.42,-2.10,67.08,0.833,-0.013,-0.013,0.552
1007407.000000,0.006,-0.039,1.010,-0.01,-0.03,-0.05,-3.48,-28.13,-20.67,-0.42,-2.10,67.08,0.833,-0.013,-0.013,0.552
1007417.000000,0.006,-0.039,1.006,0.03,0.03,-0.01,-3.52,-28.06,-19.96,-0.42,-2.10,67.08,0.833,-0.013,-0.013,0.552
1007427.000000,0.007,-0.035,1.009,0.03,0.09,0.03,-2.75,-27.93,-20.75,-0.42,-2.10,67.08,0.833,-0.013,-0.013,0.552
1007437.000000,0.010,-0.035,1.007,0.01,0.01,-0.05,-3.43,-27.93,-20.33,-0.42,-2.10,67.08,0.833,-0.013,-0.013,0.552
1007447.000000,0.008,-0.036,1.003,0.05,-0.01,-0.07,-4.17,-29.08,-20.33,-0.42,-2.10,67.08,0.833,-0.013,-0.013,0.552
1007457.000000,0.007,-0.035,1.009,0.05,-0.01,-0.01,-4.48,-29.17,-20.38,-0.42,-2.10,67.08,0.833,-0.013,-0.013,0.552
1007467.000000,0.004,-0.038,1.006,-0.05,-0.05,-0.03,-4.31,-29.17,-20.08,-0.42,-2.10,67.08,0.833,-0.013,-0.013,0.552
1007477.000000,0.004,-0.035,1.010,0.03,-0.09,0.01,-4.25,-29.04,-20.17,-0.42,-2.10,67.08,0.833,-0.013,-0.013,0.552
1007487.000000,0.007,-0.038,1.009,-0.01,0.12,0.01,-4.13,-29.04,-20.13,-0.42,-2.10,67.08,0.833,-0.013,-0.013,0.552
1007497.000000,0.010,-0.036,1.005,-0.01,-0.13,0.05,-3.93,-29.43,-20.25,-0.42,-2.10,67.08,0.833,-0.013,-0.013,0.552
1007507.000000,0.006,-0.036,1.006,0.01,0.01,-0.05,-4.02,-29.08,-20.54,-0.42,-2.10,67.08,0.833,-0.013,-0.013,0.552
1007517.000000,0.007,-0.039,1.010,0.01,0.07,-0.01,-3.89,-29.31,-20.50,-0.42,-2.10,67.08,0.833,-0.013,-0.013,0.552
1007527.000000,0.007,-0.036,1.010,0.01,0.03,-0.03,-3.85,-29.58,-20.38,-0.42,-2.10,67.08,0.833,-0.013,-0.013,0.552
1007537.000000,0.008,-0.035,1.010,-0.05,0.05,0.08,-4.21,-29.58,-20.46,-0.42,-2.10,67.08,0.833,-0.013,-0.013,0.552
1007547.000000,0.006,-0.038,1.010,0.03,0.12,-0.07,-4.21,-29.35,-20.29,-0.42,-2.10,67.08,0.833,-0.013,-0.013,0.552
1007557.000000,0.007,-0.035,1.006,0.03,-0.03,0.05,-3.89,-29.77,-20.42,-0.42,-2.10,67.08,0.833,-0.013,-0.013,0.552
1007567.000000,0.006,-0.038,1.009,-0.03,0.16,0.08,-4.25,-29.43,-20.33,-0.42,-2.10,67.08,0.833,-0.013,-0.013,0.552
1007577.000000,0.010,-0.036,1.010,-0.05,0.09,-0.01,-4.13,-29.58,-20.08,-0.42,-2.10,67.08,0.833,-0.013,-0.013,0.552
1007587.000000,0.010,-0.035,1.006,0.01,-0.05,0.01,-4.21,-29.43,-20.33,-0.42,-2.10,67.08,0.833,-0.013,-0.013,0.552
1007597.000000,0.008,-0.038,1.009,-0.07,-0.01,0.03,-3.33,-28.81,-20.33,-0.42,-2.10,67.08,0.833,-0.013,-0.013,0.552
1007607.000000,0.004,-0.036,1.010,-0.01,0.01,-0.09,-3.79,-29.08,-20.33,-0.42,-2.10,67.08,0.833,-0.013,-0.013,0.552
1007617.000000,0.006,-0.035,1.009,-0.11,-0.05,-0.07,-3.63,-29.04,-20.04,-0.42,-2.10,67.08,0.833,-0.013,-0.013,0.552
1007627.000000,0.003,-0.036,1.013,-0.03,0.05,-0.03,-3.89,-29.04,-20.38,-0.42,-2.10,67.08,0.833,-0.013,-0.013,0.552
1007637.000000,0.004,-0.039,1.010,-0.05,-0.01,-0.01,-3.79,-29.08,-20.33,-0.42,-2.10,67.08,0.833,-0.013,-0.013,0.552
1007647.000000,0.008,-0.036,1.006,-0.01,-0.05,0.01,-3.85,-28.67,-20.33,-0.42,-2.10,67.08,0.833,-0.013,-0.013,0.552
1007657.000000,0.008,-0.036,1.010,0.03,-0.07,-0.01,-3.67,-28.71,-20.29,-0.42,-2.10,67.08,0.833,-0.013,-0.013,0.552
1007667.000000,0.007,-0.039,1.011,0.03,0.07,-0.07,-3.75,-28.75,-20.46,-0.42,-2.10,67.08,0.833,-0.013,-0.013,0.552
1007677.000000,0.011,-0.036,1.007,0.09,-0.03,0.07,-3.43,-28.89,-20.29,-0.42,-2.10,67.08,0.833,-0.013,-0.013,0.552
1007687.000000,0.007,-0.038,1.009,0.07,-0.01,0.03,-3.67,-28.75,-20.29,-0.42,-2.10,67.08,0.833,-0.013,-0.013,0.552
1007697.000000,0.008,-0.036,1.010,0.07,-0.01,-0.03,-3.10,-28.29,-20.13,-0.42,-2.10,67.08,0.833,-0.013,-0.013,0.552
1007707.000000,0.010,-0.036,1.007,0.01,-0.05,0.03,-3.25,-28.52,-20.67,-0.42,-2.10,67.08,0.833,-0.013,-0.013,0.552
1007717.000000,0.008,-0.039,1.010,0.07,0.07,-0.03,-3.39,-28.75,-20.13,-0.42,-2.10,67.08,0.833,-0.013,-0.013,0.552
1007727.000000,0.010,-0.038,1.010,0.05,-0.03,-0.07,-3.67,-28.58,-20.38,-0.42,-2.10,67.08,0.833,-0.013,-0.013,0.552
1007737.000000,0.008,-0.036,1.006,0.01,0.05,0.03,-3.21,-28.63,-20.17,-0.42,-2.10,67.08,0.833,-0.013,-0.013,0.552
1007747.000000,0.006,-0.036,1.009,-0.05,0.05,-0.05,-2.56,-28.75,-20.21,-0.42,-2.10,67.08,0.833,-0.013,-0.013,0.552
1007757.000000,0.010,-0.036,1.006,-0.03,0.01,0.01,-2.68,-28.25,-20.33,-0.42,-2.10,67.08,0.833,-0.013,-0.013,0.552
1007767.000000,0.006,-0.038,1.011,-0.03,-0.03,0.01,-2.68,-28.67,-20.21,-0.42,-2.10,67.08,0.833,-0.013,-0.013,0.552
1007777.000000,0.011,-0.036,1.005,-0.01,0.03,0.08,-2.64,-28.67,-20.29,-0.42,-2.10,67.08,0.833,-0.013,-0.013,0.552
1007787.000000,0.008,-0.036,1.007,0.05,0.05,0.05,-2.64,-28.52,-20.17,-0.42,-2.10,67.08,0.833,-0.013,-0.013,0.552
1007797.000000,0.008,-0.036,1.013,0.03,0.01,-0.01,-3.56,-28.29,-20.29,-0.42,-2.10,67.08,0.833,-0.013,-0.013,0.552
1007807.000000,0.007,-0.034,1.007,0.07,-0.05,-0.01,-4.48,-28.48,-20.04,-0.42,-2.10,67.08,0.833,-0.013,-0.013,0.552
1007817.000000,0.004,-0.035,1.009,-0.01,0.03,0.01,-4.21,-28.39,-20.33,-0.42,-2.10,67.08,0.833,-0.013,-0.013,0.552
1007827.000000,0.007,-0.035,1.010,-0.01,0.03,-0.03,-4.13,-28.71,-20.29,-0.42,-2.10,67.08,0.833,-0.013,-0.013,0.552
1007837.000000,0.010,-0.034,1.009,0.03,0.05,-0.03,-3.71,-28.35,-19.88,-0.42,-2.10,67.08,0.833,-0.013,-0.013,0.552
1007847.000000,0.006,-0.039,1.006,-0.03,-0.01,0.08,-3.79,-28.93,-20.46,-0.42,-2.10,67.08,0.833,-0.013,-0.013,0.552
1007857.000000,0.010,-0.038,1.010,0.09,0.07,-0.01,-4.21,-28.63,-19.75,-0.42,-2.10,67.08,0.833,-0.013,-0.013,0.552
1007867.000000,0.007,-0.035,1.006,0.01,-0.05,0.03,-4.02,-29.08,-20.08,-0.42,-2.10,67.08,0.833,-0.013,-0.013,0.552
1007877.000000,0.007,-0.039,1.006,-0.05,0.01,0.03,-4.54,-28.58,-20.08,-0.42,-2.10,67.08,0.833,-0.013,-0.013,0.552
1007887.000000,0.007,-0.036,1.010,0.05,0.05,0.03,-4.21,-28.93,-20.17,-0.42,-2.10,67.08,0.833,-0.013,-0.013,0.552
1007897.000000,0.006,-0.038,1.010,0.03,0.07,0.07,-4.77,-29.77,-20.04,-0.42,-2.10,67.08,0.833,-0.013,-0.013,0.552
1007907.000000,0.008,-0.036,1.006,-0.03,0.05,-0.05,-4.67,-29.63,-20.29,-0.42,-2.10,67.08,0.833,-0.013,-0.013,0.552
1007917.000000,0.007,-0.036,1.007,0.01,0.05,-0.03,-4.54,-29.71,-20.25,-0.42,-2.10,67.08,0.833,-0.013,-0.013,0.552
1007927.000000,0.010,-0.036,1.005,0.03,0.07,-0.07,-4.93,-29.67,-20.42,-0.42,-2.10,67.08,0.833,-0.013,-0.013,0.552
1007937.000000,0.010,-0.038,1.009,0.05,-0.05,-0.07,-4.43,-29.43,-20.54,-0.42,-2.10,67.08,0.833,-0.013,-0.013,0.552
1007947.000000,0.008,-0.034,1.009,0.01,-0.09,0.12,-4.58,-29.63,-20.38,-0.42,-2.10,67.08,0.833,-0.013,-0.013,0.552
1007957.000000,0.007,-0.039,1.009,-0.01,0.09,0.03,-4.17,-29.67,-20.13,-0.42,-2.10,67.08,0.833,-0.013,-0.013,0.552
1007967.000000,0.007,-0.038,1.010,0.01,-0.11,-0.07,-4.17,-29.63,-20.00,-0.42,-2.09,67.08,0.833,-0.013,-0.013,0.552
1007977.000000,0.008,-0.036,1.009,-0.01,-0.01,-0.03,-4.48,-29.67,-20.17,-0.42,-2.10,67.08,0.833,-0.013,-0.013,0.552
1007987.000000,0.008,-0.034,1.009,0.03,0.07,0.01,-4.35,-29.67,-20.29,-0.43,-2.10,67.08,0.833,-0.013,-0.013,0.552
1007997.000000,0.006,-0.036,1.009,-0.01,0.07,0.01,-3.71,-28.85,-20.00,-0.42,-2.10,67.08,0.833,-0.013,-0.013,0.552
1008007.000000,0.007,-0.036,1.006,-0.01,0.05,-0.05,-3.63,-28.85,-20.50,-0.42,-2.09,67.08,0.833,-0.013,-0.013,0.552
1008017.000000,0.006,-0.040,1.009,-0.01,0.05,0.08,-3.67,-28.58,-20.29,-0.42,-2.09,67.08,0.833,-0.013,-0.013,0.552
1008027.000000,0.006,-0.036,1.007,0.07,-0.09,-0.07,-4.39,-28.75,-20.38,-0.42,-2.10,67.08,0.833,-0.013,-0.013,0.552
1008037.000000,0.007,-0.034,1.006,0.01,-0.09,0.05,-3.93,-28.93,-20.50,-0.42,-2.09,67.08,0.833,-0.013,-0.013,0.552
1008047.000000,0.008,-0.036,1.005,-0.03,-0.07,-0.01,-4.17,-28.39,-20.50,-0.43,-2.09,67.08,0.833,-0.013,-0.013,0.552
1008057.000000,0.006,-0.038,1.006,-0.01,0.09,-0.03,-4.02,-28.81,-20.21,-0.43,-2.09,67.08,0.833,-0.013,-0.013,0.552
1008067.000000,0.007,-0.036,1.010,-0.01,0.05,0.01,-4.35,-28.21,-20.38,-0.43,-2.09,67.08,0.833,-0.013,-0.013,0.552
1008077.000000,0.007,-0.038,1.010,0.07,-0.05,0.01,-3.85,-28.52,-20.17,-0.43,-2.09,67.08,0.833,-0.013,-0.013,0.552
1008087.000000,0.007,-0.036,1.009,-0.03,0.14,0.01,-4.21,-28.67,-20.29,-0.43,-2.09,67.08,0.833,-0.013,-0.013,0.552
1008097.000000,0.007,-0.039,1.009,0.01,-0.05,0.03,-3.71,-28.98,-20.29,-0.43,-2.09,67.08,0.833,-0.013,-0.013,0.552
1008107.000000,0.008,-0.038,1.007,0.03,-0.01,-0.13,-3.52,-28.98,-20.04,-0.43,-2.09,67.08,0.833,-0.013,-0.013,0.552
1008117.000000,0.010,-0.036,1.006,-0.07,-0.01,0.01,-4.02,-28.93,-20.21,-0.43,-2.09,67.08,0.833,-0.013,-0.013,0.552
1008127.000000,0.004,-0.035,1.006,-0.01,-0.03,0.03,-3.89,-29.08,-20.38,-0.43,-2.09,67.08,0.833,-0.013,-0.013,0.552
1008137.000000,0.011,-0.038,1.009,-0.01,0.03,0.01,-4.17,-28.89,-20.38,-0.43,-2.09,67.08,0.833,-0.013,-0.013,0.552
1008147.000000,0.007,-0.036,1.006,0.05,0.14,0.01,-3.89,-29.48,-20.13,-0.43,-2.09,67.08,0.833,-0.013,-0.013,0.552
1008157.000000,0.007,-0.036,1.006,-0.01,-0.05,0.01,-3.63,-29.35,-20.33,-0.43,-2.09,67.08,0.833,-0.013,-0.013,0.552
1008167.000000,0.007,-0.035,1.006,0.03,-0.01,0.01,-3.79,-30.17,-20.29,-0.43,-2.09,67.08,0.833,-0.013,-0.013,0.552
1008177.000000,0.008,-0.035,1.006,-0.01,-0.03,-0.03,-3.67,-29.71,-20.58,-0.43,-2.09,67.08,0.833,-0.013,-0.013,0.552
1008187.000000,0.007,-0.036,1.006,0.05,0.05,-0.09,-3.89,-29.43,-20.21,-0.43,-2.09,67.08,0.833,-0.013,-0.013,0.552
1008197.000000,0.011,-0.036,1.009,-0.09,-0.01,0.04,-3.85,-29.43,-20.25,-0.43,-2.09,67.08,0.833,-0.013,-0.013,0.552
1008207.000000,0.015,-0.035,1.012,-0.15,0.16,0.02,-3.71,-29.39,-20.46,-0.43,-2.10,67.08,0.833,-0.013,-0.013,0.552
1008217.000000,0.004,-0.036,1.011,-0.28,-0.03,0.02,-3.85,-29.35,-20.00,-0.43,-2.10,67.08,0.833,-0.013,-0.013,0.552
1008227.000000,0.006,-0.036,1.011,-0.32,-0.03,0.04,-3.52,-29.58,-20.25,-0.43,-2.10,67.08,0.833,-0.013,-0.013,0.552
1008237.000000,0.007,-0.034,1.009,0.13,0.12,-0.03,-3.56,-29.54,-20.33,-0.43,-2.10,67.08,0.833,-0.013,-0.013,0.552
1008247.000000,0.010,-0.039,1.005,0.23,0.07,-0.03,-3.98,-29.77,-20.17,-0.43,-2.10,67.08,0.833,-0.013,-0.013,0.552
1008257.000000,0.010,-0.035,1.010,0.01,0.05,0.05,-3.79,-29.58,-20.46,-0.43,-2.10,67.08,0.833,-0.013,-0.013,0.552
1008267.000000,0.008,-0.040,1.001,0.03,0.03,0.01,-3.43,-29.48,-20.46,-0.43,-2.10,67.08,0.833,-0.013,-0.013,0.552
1008277.000000,0.006,-0.035,1.007,0.54,0.01,-0.03,-3.85,-29.77,-20.42,-0.43,-2.10,67.08,0.833,-0.013,-0.013,0.552
1008287.000000,0.007,-0.034,1.007,0.09,0.12,-0.01,-3.79,-29.27,-20.29,-0.43,-2.09,67.08,0.833,-0.013,-0.013,0.552
1008297.000000,0.011,-0.038,1.007,0.07,-0.03,0.01,-3.85,-28.98,-20.42,-0.42,-2.09,67.08,0.833,-0.013,-0.013,0.552
1008307.000000,0.006,-0.035,1.007,-0.13,-0.05,-0.03,-4.08,-29.35,-20.04,-0.42,-2.09,67.08,0.833,-0.013,-0.013,0.552
1008317.000000,0.006,-0.035,1.007,0.07,0.05,0.03,-3.85,-28.89,-20.21,-0.43,-2.09,67.08,0.833,-0.013,-0.013,0.552
1008327.000000,0.006,-0.036,1.010,0.13,-0.03,-0.11,-4.21,-28.67,-20.21,-0.43,-2.09,67.08,0.833,-0.013,-0.013,0.552
1008337.000000,0.006,-0.036,1.013,0.01,0.09,0.05,-4.13,-28.81,-20.13,-0.43,-2.09,67.08,0.833,-0.013,-0.013,0.552
1008347.000000,0.007,-0.035,1.007,0.07,0.01,0.03,-3.17,-28.67,-20.38,-0.43,-2.09,67.08,0.833,-0.013,-0.013,0.552
1008357.000000,0.008,-0.039,1.009,0.03,0.03,0.10,-2.98,-28.85,-20.38,-0.43,-2.09,67.08,0.833,-0.013,-0.013,0.552
1008367.000000,0.008,-0.035,1.010,0.01,-0.01,0.03,-3.02,-28.89,-20.54,-0.43,-2.09,67.08,0.833,-0.013,-0.013,0.552
1008377.000000,0.010,-0.038,1.009,0.05,0.09,-0.03,-3.17,-28.58,-20.04,-0.43,-2.09,67.08,0.833,-0.013,-0.013,0.552
1008387.000000,0.007,-0.036,1.010,0.03,-0.11,-0.07,-3.17,-28.52,-20.42,-0.42,-2.09,67.08,0.833,-0.013,-0.013,0.552
1008397.000000,0.012,-0.038,1.005,0.05,0.03,0.10,-4.17,-29.48,-20.21,-0.43,-2.09,67.08,0.833,-0.013,-0.013,0.552
1008407.000000,0.008,-0.035,1.005,-0.03,0.03,-0.07,-3.89,-29.08,-20.46,-0.43,-2.09,67.08,0.833,-0.013,-0.013,0.552
1008417.000000,0.008,-0.036,1.007,-0.07,-0.01,0.08,-3.98,-29.35,-21.04,-0.43,-2.09,67.08,0.833,-0.013,-0.013,0.552
1008427.000000,0.011,-0.036,1.010,-0.01,-0.03,-0.01,-3.93,-29.54,-20.79,-0.43,-2.09,67.08,0.833,-0.013,-0.013,0.552
1008437.000000,0.007,-0.038,1.003,0.01,-0.15,0.01,-4.17,-29.17,-20.50,-0.43,-2.09,67.08,0.833,-0.013,-0.013,0.552
1008447.000000,0.007,-0.038,1.007,0.07,0.07,0.03,-3.79,-28.81,-20.13,-0.43,-2.09,67.08,0.833,-0.013,-0.013,0.552
1008457.000000,0.008,-0.038,1.006,-0.01,0.01,0.03,-4.13,-29.48,-20.17,-0.43,-2.09,67.08,0.833,-0.013,-0.013,0.552
1008467.000000,0.008,-0.038,1.010,0.07,-0.07,0.09,-4.21,-29.39,-20.13,-0.43,-2.09,67.08,0.833,-0.013,-0.013,0.552
1008477.000000,0.006,-0.036,1.009,0.01,0.01,0.01,-4.25,-29.17,-20.38,-0.43,-2.09,67.08,0.833,-0.013,-0.013,0.552
1008487.000000,0.007,-0.040,1.010,-0.75,-0.13,-0.10,-4.13,-29.58,-20.21,-0.43,-2.09,67.08,0.833,-0.013,-0.013,0.552
1008497.000000,0.010,-0.035,1.011,-2.43,-0.49,-0.03,-4.21,-28.39,-20.08,-0.43,-2.09,67.08,0.833,-0.013,-0.013,0.552
1008507.000000,0.008,-0.042,1.003,-1.84,-0.37,-0.01,-4.43,-28.13,-20.38,-0.44,-2.12,67.08,0.833,-0.013,-0.013,0.552
1008517.000000,0.008,-0.035,1.007,0.50,0.18,0.01,-4.67,-28.13,-20.42,-0.44,-2.13,67.08,0.833,-0.013,-0.013,0.552
1008527.000000,0.006,-0.034,1.014,1.62,0.34,-0.04,-4.67,-28.17,-20.63,-0.44,-2.13,67.08,0.833,-0.013,-0.013,0.552
1008537.000000,0.010,-0.038,1.003,0.23,0.09,-0.01,-4.58,-28.13,-20.79,-0.44,-2.12,67.08,0.833,-0.013,-0.013,0.552
1008547.000000,0.010,-0.032,1.011,0.82,0.22,0.01,-5.08,-28.63,-20.33,-0.43,-2.11,67.08,0.833,-0.013,-0.013,0.552
1008557.000000,0.004,-0.038,1.013,0.40,0.14,0.07,-5.63,-28.67,-20.13,-0.43,-2.11,67.08,0.833,-0.013,-0.013,0.552
1008567.000000,0.007,-0.040,1.006,0.01,0.03,0.05,-5.68,-28.98,-20.42,-0.43,-2.10,67.08,0.833,-0.013,-0.013,0.552
1008577.000000,0.008,-0.038,1.007,0.07,0.12,0.01,-5.39,-28.52,-20.50,-0.43,-2.10,67.08,0.833,-0.013,-0.013,0.552
1008587.000000,0.008,-0.039,1.005,0.27,0.01,-0.03,-5.50,-29.21,-20.25,-0.43,-2.10,67.08,0.833,-0.013,-0.013,0.552
1008597.000000,0.011,-0.036,1.005,0.66,0.11,-0.03,-5.00,-28.89,-20.13,-0.43,-2.10,67.08,0.833,-0.013,-0.013,0.552
1008607.000000,0.007,-0.038,1.010,0.56,0.05,0.03,-4.93,-29.04,-20.17,-0.43,-2.09,67.08,0.833,-0.013,-0.013,0.552
1008617.000000,0.007,-0.038,1.007,0.11,0.12,0.03,-5.04,-28.85,-20.46,-0.43,-2.09,67.08,0.833,-0.013,-0.013,0.552
1008627.000000,0.007,-0.036,1.010,0.17,-0.03,0.11,-5.27,-28.58,-20.08,-0.43,-2.09,67.08,0.833,-0.013,-0.013,0.552
1008637.000000,0.006,-0.035,1.006,0.03,-0.07,0.01,-4.71,-28.67,-20.58,-0.43,-2.08,67.08,0.833,-0.013,-0.013,0.552
1008647.000000,0.007,-0.036,1.009,-0.22,-0.03,0.02,-4.58,-28.71,-20.25,-0.43,-2.08,67.08,0.833,-0.013,-0.013,0.552
1008657.000000,0.006,-0.040,1.010,0.29,-0.01,0.05,-4.63,-28.67,-20.33,-0.43,-2.09,67.08,0.833,-0.013,-0.013,0.552
1008667.000000,0.008,-0.035,1.010,-0.20,-0.01,-0.09,-4.63,-28.89,-20.08,-0.43,-2.08,67.08,0.833,-0.013,-0.013,0.553
1008677.000000,0.007,-0.038,1.009,-0.03,0.09,0.01,-4.25,-28.75,-20.25,-0.43,-2.08,67.08,0.833,-0.013,-0.013,0.552
1008687.000000,0.007,-0.035,1.010,0.05,-0.03,0.03,-4.58,-28.67,-20.42,-0.43,-2.09,67.08,0.833,-0.013,-0.013,0.552
1008697.000000,0.008,-0.036,1.011,-0.03,0.12,0.01,-4.67,-29.31,-20.13,-0.43,-2.08,67.08,0.833,-0.013,-0.013,0.552
1008707.000000,0.007,-0.038,1.009,0.11,-0.07,0.01,-4.39,-29.13,-20.33,-0.43,-2.08,67.08,0.833,-0.013,-0.013,0.552
1008717.000000,0.007,-0.036,1.007,0.01,-0.03,-0.03,-4.58,-29.31,-20.21,-0.43,-2.08,67.08,0.833,-0.013,-0.013,0.552
1008727.000000,0.010,-0.036,1.006,-0.01,-0.07,0.05,-4.31,-29.35,-20.29,-0.43,-2.08,67.08,0.833,-0.013,-0.013,0.552
1008737.000000,0.008,-0.032,1.009,0.07,0.07,0.03,-4.13,-29.31,-20.04,-0.43,-2.08,67.08,0.833,-0.013,-0.013,0.553
1008747.000000,0.008,-0.038,1.009,-0.03,0.05,-0.05,-4.58,-28.25,-19.92,-0.43,-2.08,67.08,0.833,-0.013,-0.013,0.553
1008757.000000,0.010,-0.036,1.006,-0.07,0.01,-0.01,-5.13,-28.71,-20.38,-0.43,-2.08,67.08,0.833,-0.013,-0.013,0.553
1008767.000000,0.007,-0.039,1.010,-0.01,0.12,-0.05,-4.63,-28.71,-20.29,-0.43,-2.08,67.08,0.833,-0.013,-0.013,0.553
1008777.000000,0.007,-0.038,1.006,0.38,-0.01,0.17,-4.58,-28.52,-20.50,-0.43,-2.08,67.08,0.833,-0.013,-0.013,0.552
1008787.000000,0.012,-0.039,1.002,1.44,0.05,1.51,-4.63,-28.71,-20.29,-0.43,-2.08,67.08,0.833,-0.013,-0.013,0.553
1008797.000000,0.004,-0.029,1.005,3.16,0.15,2.09,-4.58,-29.21,-20.46,-0.43,-2.07,67.10,0.833,-0.013,-0.013,0.553
1008807.000000,0.008,-0.034,1.007,4.20,0.21,0.00,-4.31,-29.27,-19.88,-0.43,-2.04,67.12,0.833,-0.013,-0.013,0.553
1008817.000000,0.008,-0.030,1.013,3.49,0.23,-0.01,-4.17,-29.48,-20.25,-0.43,-2.00,67.12,0.833,-0.012,-0.013,0.553
1008827.000000,0.008,-0.026,1.014,0.84,0.09,0.05,-4.81,-29.58,-20.17,-0.43,-1.96,67.12,0.833,-0.012,-0.013,0.553
1008837.000000,0.006,-0.032,1.013,-2.60,-0.05,-0.07,-4.89,-29.43,-20.00,-0.42,-1.95,67.12,0.833,-0.012,-0.012,0.553
1008847.000000,0.008,-0.034,1.011,-5.61,-0.16,-0.01,-4.25,-29.43,-20.08,-0.43,-1.97,67.12,0.833,-0.012,-0.013,0.553
1008857.000000,0.017,-0.070,0.969,-7.22,-0.37,0.01,-4.31,-29.13,-20.00,-0.43,-2.02,67.12,0.833,-0.013,-0.013,0.553
1008867.000000,0.006,-0.032,1.016,3.00,0.32,-0.01,-3.98,-29.17,-20.42,-0.43,-2.09,67.12,0.833,-0.013,-0.013,0.553
1008877.000000,0.007,-0.034,1.014,2.27,0.23,0.02,-4.17,-29.13,-20.21,-0.43,-2.08,67.12,0.833,-0.013,-0.013,0.553
1008887.000000,0.012,-0.036,1.009,0.66,0.05,-0.07,-4.08,-28.85,-19.83,-0.43,-2.05,67.12,0.833,-0.013,-0.013,0.553
1008897.000000,0.009,-0.044,0.994,-0.42,0.05,-0.11,-4.08,-28.85,-19.83,-0.43,-2.05,67.12,0.833,-0.013,-0.013,0.553
1008907.000000,0.016,-0.042,1.003,3.79,0.23,0.01,-3.29,-29.08,-20.13,-0.43,-2.05,67.12,0.833,-0.013,-0.013,0.553
1008917.000000,0.040,-0.044,1.004,7.13,0.19,0.33,-4.08,-28.71,-20.17,-0.43,-2.02,67.12,0.833,-0.013,-0.013,0.553
1008927.000000,0.021,-0.043,1.003,9.96,0.47,2.36,-3.56,-28.85,-20.00,-0.42,-1.95,67.12,0.833,-0.012,-0.013,0.553
1008937.000000,0.015,-0.057,1.061,12.23,0.38,4.83,-3.48,-29.13,-20.42,-0.42,-1.86,67.14,0.833,-0.011,-0.012,0.553
1008947.000000,0.009,-0.029,1.028,2.30,-0.05,5.54,-3.48,-29.13,-20.42,-0.42,-1.74,67.19,0.833,-0.011,-0.011,0.553
1008957.000000,-0.015,0.001,1.011,-0.61,-0.32,8.09,-4.02,-28.67,-20.13,-0.42,-1.70,67.24,0.833,-0.010,-0.011,0.554
1008967.000000,-0.018,-0.020,1.015,0.12,-0.13,7.04,-3.93,-28.52,-20.29,-0.42,-1.70,67.32,0.832,-0.010,-0.011,0.554
1008977.000000,0.001,-0.022,1.002,-0.10,-0.11,7.49,-3.93,-29.17,-20.04,-0.42,-1.70,67.39,0.832,-0.010,-0.011,0.555
1008987.000000,0.001,-0.022,1.010,-1.45,0.03,4.33,-3.89,-29.04,-20.08,-0.42,-1.70,67.47,0.831,-0.010,-0.011,0.555
1008997.000000,0.005,-0.027,1.011,-3.55,-0.11,3.24,-3.89,-29.04,-20.08,-0.41,-1.71,67.52,0.831,-0.010,-0.011,0.556
1009007.000000,0.007,-0.035,1.003,-4.03,-0.21,1.49,-5.54,-29.17,-20.25,-0.41,-1.75,67.55,0.831,-0.011,-0.011,0.556
1009017.000000,0.012,-0.040,1.002,-3.16,-0.07,0.34,-5.27,-29.17,-20.13,-0.41,-1.79,67.57,0.831,-0.011,-0.012,0.556
1009027.000000,0.009,-0.049,0.996,0.87,-0.01,1.05,-5.46,-29.31,-20.04,-0.42,-1.82,67.57,0.831,-0.011,-0.012,0.556
1009037.000000,-0.007,-0.096,1.129,9.00,0.27,2.90,-5.39,-29.31,-19.92,-0.42,-1.82,67.58,0.831,-0.011,-0.012,0.556
1009047.000000,0.015,-0.044,1.011,2.87,-0.02,7.76,-5.39,-29.31,-19.92,-0.41,-1.75,67.61,0.831,-0.011,-0.011,0.556
1009057.000000,0.011,-0.032,1.003,-0.38,-0.16,15.32,-3.21,-29.48,-19.88,-0.41,-1.70,67.68,0.830,-0.010,-0.011,0.557
1009067.000000,0.001,-0.025,1.007,-0.01,-0.02,16.01,-3.98,-29.39,-19.92,-0.41,-1.70,67.82,0.830,-0.010,-0.011,0.558
1009077.000000,0.005,-0.001,1.027,-0.13,0.02,16.32,-3.75,-29.35,-19.88,-0.41,-1.71,67.98,0.829,-0.010,-0.011,0.559
1009087.000000,-0.006,0.001,1.016,-0.10,-0.20,14.30,-3.89,-29.58,-20.04,-0.40,-1.71,68.14,0.828,-0.010,-0.011,0.560
1009097.000000,0.010,-0.010,1.023,-0.18,-0.05,5.66,-3.89,-29.58,-20.04,-0.40,-1.71,68.29,0.827,-0.010,-0.011,0.561
1009107.000000,0.007,-0.007,1.031,-6.20,-0.20,-0.45,-4.63,-29.54,-20.29,-0.40,-1.71,68.36,0.827,-0.010,-0.011,0.562
1009117.000000,0.009,-0.020,1.020,-22.03,-0.82,-0.05,-4.31,-29.54,-20.38,-0.40,-1.75,68.36,0.827,-0.011,-0.011,0.562
1009127.000000,0.020,-0.070,0.990,-26.96,-3.53,-0.87,-4.25,-29.31,-20.58,-0.40,-1.95,68.36,0.827,-0.012,-0.012,0.562
1009137.000000,0.009,-0.051,0.986,-14.28,-3.23,-3.33,-4.48,-29.08,-20.58,-0.43,-2.22,68.35,0.827,-0.014,-0.014,0.562
1009147.000000,0.020,-0.062,1.009,-6.39,-1.41,-0.92,-4.48,-29.08,-20.58,-0.47,-2.38,68.32,0.827,-0.015,-0.015,0.561
1009157.000000,0.012,-0.034,1.011,-4.45,-1.13,3.16,-5.08,-29.58,-20.29,-0.49,-2.45,68.30,0.827,-0.015,-0.016,0.561
1009167.000000,0.010,-0.048,1.013,-7.13,-1.78,10.44,-5.17,-29.08,-20.71,-0.50,-2.50,68.33,0.827,-0.016,-0.016,0.562
1009177.000000,-0.001,-0.039,1.006,-11.02,-3.04,14.91,-5.23,-29.54,-20.50,-0.51,-2.57,68.42,0.827,-0.016,-0.016,0.562
1009187.000000,0.001,-0.036,1.015,-15.33,-3.65,15.63,-5.27,-29.54,-20.63,-0.54,-2.67,68.57,0.826,-0.017,-0.017,0.563
1009197.000000,0.002,-0.064,0.963,-18.48,-4.24,14.52,-5.27,-29.54,-20.63,-0.57,-2.82,68.72,0.825,-0.018,-0.018,0.564
1009207.000000,0.004,-0.056,0.992,-9.13,-2.35,11.49,-5.77,-28.67,-20.46,-0.60,-3.00,68.87,0.824,-0.019,-0.019,0.565
1009217.000000,0.006,-0.038,1.006,3.16,0.39,8.94,-6.18,-28.85,-20.33,-0.62,-3.11,68.99,0.824,-0.019,-0.020,0.566
1009227.000000,0.024,-0.047,1.011,5.38,0.90,6.31,-6.27,-28.81,-20.83,-0.61,-3.10,69.08,0.823,-0.019,-0.020,0.567
1009237.000000,0.026,-0.053,1.005,4.01,0.70,4.47,-6.23,-28.67,-20.63,-0.60,-3.04,69.15,0.823,-0.019,-0.019,0.567
1009247.000000,0.022,-0.073,0.996,4.59,0.82,0.69,-6.23,-28.67,-20.63,-0.59,-3.00,69.19,0.823,-0.019,-0.019,0.568
1009257.000000,0.022,-0.075,0.994,8.95,1.76,1.25,-5.96,-28.43,-20.88,-0.58,-2.96,69.21,0.823,-0.018,-0.019,0.568
1009267.000000,0.039,-0.109,1.011,15.20,2.99,7.65,-5.96,-28.43,-20.88,-0.57,-2.88,69.22,0.823,-0.018,-0.018,0.568
1009277.000000,0.016,-0.105,1.026,19.37,3.86,13.10,-5.96,-28.43,-20.88,-0.54,-2.74,69.29,0.822,-0.017,-0.018,0.568
1009287.000000,0.040,-0.095,0.993,19.68,3.83,19.76,-5.96,-28.43,-20.88,-0.50,-2.56,69.41,0.822,-0.016,-0.016,0.569
1009297.000000,0.031,-0.031,1.052,14.09,3.10,29.75,-6.56,-28.85,-20.38,-0.46,-2.37,69.60,0.821,-0.015,-0.015,0.571
1009307.000000,0.001,-0.025,1.075,7.02,7.69,38.18,-5.92,-29.63,-20.38,-0.42,-2.23,69.89,0.820,-0.014,-0.014,0.573
1009317.000000,-0.052,-0.056,1.056,-5.98,13.60,39.41,-5.63,-29.93,-20.42,-0.34,-2.15,70.26,0.818,-0.014,-0.013,0.575
1009327.000000,-0.083,-0.061,1.075,-12.94,22.98,33.30,-6.33,-29.81,-20.58,-0.19,-2.20,70.66,0.816,-0.015,-0.012,0.578
1009337.000000,-0.116,-0.068,1.076,-16.33,36.84,19.22,-6.50,-30.04,-20.88,0.04,-2.32,71.00,0.814,-0.017,-0.011,0.581
1009347.000000,-0.125,-0.083,1.097,-18.89,54.26,1.86,-6.33,-30.35,-20.67,0.41,-2.48,71.21,0.813,-0.020,-0.010,0.582
1009357.000000,-0.127,-0.075,1.114,-24.23,74.53,-16.31,-6.56,-29.77,-20.63,0.94,-2.67,71.25,0.813,-0.024,-0.007,0.582
1009367.000000,-0.096,-0.121,1.084,-34.29,94.71,-32.33,-6.18,-29.89,-20.54,1.65,-2.90,71.12,0.813,-0.029,-0.003,0.581
1009377.000000,-0.083,-0.139,1.126,-49.02,108.89,-40.23,-5.23,-29.35,-20.83,2.55,-3.25,70.83,0.815,-0.036,0.002,0.579
1009387.000000,-0.088,-0.142,1.106,-63.14,98.92,-45.23,-4.93,-29.35,-20.96,3.60,-3.74,70.46,0.817,-0.045,0.007,0.575
1009397.000000,-0.115,-0.117,1.058,-74.17,58.36,-52.11,-4.35,-28.89,-21.38,4.58,-4.38,70.05,0.819,-0.054,0.011,0.572
1009407.000000,-0.109,-0.139,1.015,-81.59,26.20,-60.82,-2.93,-27.98,-21.38,5.18,-5.15,69.61,0.821,-0.063,0.011,0.568
1009417.000000,-0.074,-0.130,0.939,-85.17,25.41,-63.55,-2.46,-27.38,-21.75,5.43,-6.01,69.08,0.823,-0.070,0.009,0.564
1009427.000000,-0.071,-0.117,0.954,-73.91,52.60,-53.29,-1.54,-26.64,-22.29,5.62,-6.91,68.53,0.826,-0.077,0.007,0.559
1009437.000000,-0.077,-0.135,1.017,-60.38,68.49,-41.08,-1.04,-26.06,-22.38,6.05,-7.72,68.06,0.828,-0.085,0.006,0.555
1009447.000000,-0.105,-0.165,1.046,-57.05,63.87,-30.49,-0.81,-25.23,-22.46,6.67,-8.39,67.70,0.829,-0.093,0.007,0.551
1009457.000000,-0.148,-0.187,1.044,-62.01,54.35,-24.41,0.39,-24.46,-23.13,7.27,-8.99,67.45,0.830,-0.100,0.009,0.548
1009467.000000,-0.173,-0.188,1.070,-69.28,54.72,-21.52,0.58,-24.14,-23.04,7.80,-9.64,67.28,0.831,-0.107,0.010,0.546
1009477.000000,-0.204,-0.195,1.103,-78.67,61.09,-21.53,1.00,-23.46,-23.58,8.32,-10.35,67.16,0.831,-0.115,0.010,0.544
1009487.000000,-0.200,-0.174,1.110,-87.66,57.17,-24.68,1.73,-23.31,-23.50,8.91,-11.14,67.06,0.831,-0.123,0.011,0.542
1009497.000000,-0.204,-0.156,1.064,-97.86,52.10,-28.02,1.68,-22.81,-23.75,9.46,-12.04,66.96,0.831,-0.132,0.011,0.540
1009507.000000,-0.216,-0.151,1.014,-98.48,56.59,-29.66,2.60,-21.25,-24.17,9.96,-13.04,66.85,0.832,-0.142,0.010,0.537
1009517.000000,-0.201,-0.198,0.974,-90.39,61.81,-33.22,2.98,-20.63,-24.42,10.49,-14.06,66.73,0.832,-0.152,0.009,0.534
1009527.000000,-0.173,-0.269,0.984,-81.02,55.01,-38.43,3.29,-19.83,-24.54,11.07,-15.02,66.57,0.832,-0.161,0.009,0.531
1009537.000000,-0.157,-0.310,0.998,-78.28,39.32,-40.72,3.48,-19.33,-24.58,11.57,-15.90,66.36,0.832,-0.170,0.008,0.528
1009547.000000,-0.181,-0.350,1.005,-83.81,29.00,-39.18,4.25,-18.75,-25.04,11.92,-16.75,66.11,0.833,-0.177,0.007,0.524
1009557.000000,-0.203,-0.358,1.030,-92.30,25.20,-37.51,4.39,-18.29,-25.21,12.15,-17.64,65.89,0.833,-0.185,0.005,0.521
1009567.000000,-0.223,-0.378,1.068,-106.67,33.25,-37.19,4.71,-17.77,-25.38,12.35,-18.61,65.70,0.834,-0.193,0.002,0.518
1009577.000000,-0.225,-0.397,1.102,-127.23,48.55,-36.99,5.04,-17.23,-25.54,12.62,-19.72,65.56,0.834,-0.202,-0.001,0.514
1009587.000000,-0.230,-0.376,1.097,-150.23,51.64,-37.65,5.39,-16.23,-26.13,13.05,-21.01,65.47,0.833,-0.213,-0.004,0.511
1009597.000000,-0.246,-0.358,1.038,-169.05,44.40,-39.47,6.14,-15.63,-26.33,13.56,-22.53,65.44,0.832,-0.226,-0.007,0.507
1009607.000000,-0.251,-0.309,0.968,-176.87,46.02,-41.04,6.83,-13.89,-26.75,14.02,-24.25,65.46,0.830,-0.240,-0.012,0.503
1009617.000000,-0.249,-0.332,0.878,-171.17,58.97,-42.60,7.38,-12.98,-26.96,14.49,-26.05,65.50,0.828,-0.254,-0.018,0.499
1009627.000000,-0.236,-0.397,0.807,-152.23,71.15,-44.44,7.71,-11.92,-27.50,15.08,-27.82,65.53,0.826,-0.269,-0.022,0.494
1009637.000000,-0.218,-0.482,0.780,-129.44,70.04,-45.34,8.02,-10.96,-27.50,15.77,-29.42,65.51,0.825,-0.283,-0.024,0.489
1009647.000000,-0.216,-0.542,0.776,-115.19,53.10,-47.47,8.93,-9.88,-27.54,16.44,-30.81,65.43,0.823,-0.296,-0.026,0.484
1009657.000000,-0.225,-0.532,0.837,-113.21,27.11,-52.84,8.56,-10.10,-27.83,16.91,-32.06,65.29,0.822,-0.306,-0.028,0.479
1009667.000000,-0.229,-0.511,0.869,-119.00,1.96,-54.71,9.04,-9.23,-28.13,17.11,-33.30,65.10,0.822,-0.316,-0.032,0.474
1009677.000000,-0.248,-0.525,0.882,-128.23,-15.64,-51.87,8.75,-8.35,-28.08,17.06,-34.59,64.88,0.821,-0.324,-0.038,0.469
1009687.000000,-0.269,-0.542,0.891,-138.39,-15.10,-49.26,8.71,-7.54,-28.29,16.83,-35.95,64.72,0.819,-0.332,-0.046,0.466
1009698.000000,-0.277,-0.557,0.874,-149.23,-0.86,-50.32,9.13,-6.13,-28.92,16.61,-37.39,64.62,0.817,-0.341,-0.054,0.462
1009707.000000,-0.247,-0.549,0.849,-161.04,15.25,-53.19,9.50,-4.98,-29.17,16.52,-38.94,64.54,0.814,-0.351,-0.062,0.458
1009717.000000,-0.225,-0.581,0.793,-172.16,18.73,-55.55,9.67,-4.06,-29.21,16.60,-40.61,64.48,0.812,-0.363,-0.069,0.453
1009727.000000,-0.187,-0.603,0.724,-178.15,11.25,-55.69,9.96,-3.46,-29.75,16.76,-42.39,64.42,0.809,-0.375,-0.076,0.447
1009737.000000,-0.168,-0.634,0.648,-176.12,-3.73,-51.51,10.35,-1.77,-29.63,16.86,-44.24,64.40,0.805,-0.388,-0.084,0.442
1009747.000000,-0.165,-0.654,0.619,-167.61,-16.90,-44.87,10.27,-0.58,-30.00,16.85,-46.07,64.41,0.801,-0.399,-0.092,0.437
1009758.000000,-0.197,-0.683,0.608,-155.45,-20.77,-38.16,10.23,0.58,-30.00,16.75,-47.82,64.49,0.796,-0.410,-0.101,0.433
1009768.000000,-0.200,-0.678,0.613,-143.64,-14.30,-37.26,10.46,1.27,-30.38,16.63,-49.43,64.60,0.792,-0.420,-0.110,0.429
1009778.000000,-0.201,-0.696,0.606,-135.13,-0.23,-38.57,10.13,2.73,-30.33,16.55,-50.93,64.69,0.788,-0.429,-0.118,0.426
1009788.000000,-0.194,-0.734,0.596,-132.87,10.07,-41.14,10.27,3.52,-30.54,16.56,-52.34,64.73,0.784,-0.438,-0.124,0.422
1009798.000000,-0.189,-0.752,0.592,-135.24,16.09,-43.09,10.46,4.56,-30.13,16.63,-53.72,64.71,0.781,-0.447,-0.130,0.417
1009808.000000,-0.191,-0.747,0.566,-141.35,21.56,-44.01,10.68,5.39,-30.25,16.76,-55.13,64.67,0.777,-0.456,-0.136,0.412
1009818.000000,-0.194,-0.755,0.527,-147.61,24.02,-44.92,10.68,6.52,-30.42,16.95,-56.59,64.65,0.773,-0.466,-0.141,0.407
1009828.000000,-0.171,-0.774,0.532,-149.89,24.02,-45.17,10.81,7.54,-30.21,17.20,-58.12,64.66,0.769,-0.476,-0.146,0.401
1009838.000000,-0.149,-0.805,0.524,-153.19,17.97,-42.93,10.92,8.35,-30.42,17.47,-59.67,64.70,0.765,-0.486,-0.152,0.395
1009848.000000,-0.145,-0.865,0.497,-158.16,8.91,-39.85,10.81,9.04,-29.83,17.75,-61.25,64.80,0.760,-0.496,-0.158,0.389
1009858.000000,-0.135,-0.864,0.468,-159.46,2.08,-36.93,10.77,11.42,-29.75,18.03,-62.86,65.01,0.755,-0.506,-0.164,0.384
1009868.000000,-0.135,-0.866,0.446,-156.97,-6.25,-33.19,10.77,12.06,-29.63,18.35,-64.48,65.33,0.749,-0.516,-0.171,0.379
1009878.000000,-0.159,-0.860,0.430,-154.80,-13.97,-28.19,10.23,13.67,-29.50,18.69,-66.07,65.76,0.743,-0.526,-0.178,0.375
1009888.000000,-0.187,-0.856,0.412,-155.20,-16.68,-27.11,10.08,14.17,-29.25,19.09,-67.63,66.34,0.736,-0.535,-0.185,0.371
1009898.000000,-0.184,-0.860,0.396,-158.79,-11.74,-32.05,9.81,14.93,-29.08,19.58,-69.17,67.04,0.730,-0.544,-0.192,0.368
1009908.000000,-0.147,-0.892,0.361,-163.75,-2.95,-39.88,9.08,16.31,-28.71,20.13,-70.75,67.77,0.723,-0.553,-0.199,0.364
1009918.000000,-0.106,-0.922,0.328,-170.06,4.36,-45.02,8.89,16.73,-28.17,20.72,-72.40,68.43,0.716,-0.562,-0.207,0.359
1009928.000000,-0.079,-0.943,0.290,-173.17,10.99,-45.20,8.93,17.92,-28.13,21.41,-74.12,69.10,0.709,-0.572,-0.214,0.353
1009938.000000,-0.079,-0.940,0.256,-172.21,14.66,-41.12,8.85,18.79,-27.75,22.33,-75.88,69.96,0.702,-0.582,-0.221,0.346
1009948.000000,-0.093,-0.935,0.236,-165.59,11.86,-37.65,8.52,19.98,-27.29,23.68,-77.62,71.20,0.695,-0.592,-0.227,0.339
1009958.000000,-0.100,-0.931,0.205,-158.73,6.58,-36.89,9.17,20.93,-26.88,25.48,-79.28,72.91,0.688,-0.601,-0.233,0.333
1009968.000000,-0.090,-0.932,0.182,-154.44,6.81,-38.31,9.54,21.93,-26.50,27.73,-80.86,75.12,0.681,-0.610,-0.239,0.327
1009978.000000,-0.059,-0.931,0.175,-154.47,10.93,-39.71,8.98,22.73,-25.54,30.65,-82.39,78.01,0.674,-0.619,-0.245,0.322
1009988.000000,-0.024,-0.928,0.141,-156.63,2.34,-40.68,8.93,23.46,-25.38,34.92,-83.89,82.21,0.667,-0.627,-0.251,0.315
1009998.000000,-0.018,-0.945,0.070,-163.11,-23.13,-38.25,8.67,24.00,-24.58,41.84,-85.36,89.12,0.659,-0.635,-0.257,0.309
1010008.000000,-0.027,-0.984,0.004,-168.84,-42.90,-35.01,7.42,25.64,-24.63,55.43,-86.73,102.94,0.651,-0.643,-0.265,0.305
1010018.000000,-0.049,-1.000,-0.018,-171.29,-43.61,-32.28,7.18,26.88,-24.58,85.03,-87.66,132.98,0.641,-0.651,-0.274,0.301
1010028.000000,-0.064,-1.014,-0.018,-175.14,-37.40,-30.00,6.92,27.48,-23.96,126.54,-87.50,174.96,0.631,-0.658,-0.282,0.297
1010038.000000,-0.062,-0.977,-0.021,-182.81,-38.05,-32.53,6.50,28.39,-23.79,151.83,-86.35,-159.34,0.621,-0.666,-0.291,0.294
1010048.000000,-0.066,-0.992,-0.027,-190.46,-43.73,-37.88,6.14,28.85,-22.96,164.03,-84.78,-146.72,0.610,-0.674,-0.299,0.290
1010058.000000,-0.055,-0.981,-0.045,-199.01,-49.71,-44.90,5.92,29.31,-22.04,170.78,-83.01,-139.50,0.599,-0.682,-0.308,0.285
1010068.000000,-0.035,-0.946,-0.110,-210.15,-49.77,-52.23,5.54,28.89,-21.63,175.12,-81.11,-134.63,0.587,-0.690,-0.318,0.280
1010078.000000,-0.044,-0.918,-0.196,-220.71,-41.01,-57.12,4.58,30.77,-19.83,178.21,-79.07,-130.98,0.574,-0.698,-0.329,0.275
1010088.000000,-0.004,-0.858,-0.283,-226.87,-28.71,-62.41,4.21,31.27,-20.00,-179.46,-76.89,-128.17,0.561,-0.706,-0.340,0.268
1010098.000000,0.033,-0.814,-0.341,-223.49,-17.97,-62.50,3.17,31.96,-18.71,-177.58,-74.61,-125.92,0.547,-0.714,-0.350,0.261
1010108.000000,0.045,-0.792,-0.405,-212.49,-21.78,-59.98,2.88,34.33,-17.71,-176.09,-72.34,-124.16,0.534,-0.722,-0.360,0.252
1010118.000000,0.068,-0.798,-0.469,-198.79,-39.42,-57.83,2.14,34.43,-17.08,-175.02,-70.16,-122.81,0.521,-0.730,-0.369,0.244
1010128.000000,0.059,-0.797,-0.505,-182.83,-48.74,-53.70,2.10,35.29,-16.04,-174.36,-68.11,-121.70,0.508,-0.736,-0.379,0.237
1010138.000000,0.063,-0.776,-0.539,-161.94,-43.77,-46.64,0.96,35.85,-15.67,-174.00,-66.21,-120.80,0.496,-0.742,-0.388,0.231
1010148.000000,0.071,-0.791,-0.558,-137.57,-34.34,-38.80,0.35,36.54,-14.83,-173.80,-64.51,-120.08,0.484,-0.746,-0.397,0.226
1010158.000000,0.082,-0.813,-0.558,-113.62,-28.34,-30.15,-0.50,37.35,-13.96,-173.66,-63.05,-119.54,0.475,-0.750,-0.404,0.222
1010168.000000,0.081,-0.830,-0.537,-94.10,-26.53,-21.30,-1.23,38.13,-13.33,-173.60,-61.85,-119.15,0.467,-0.753,-0.409,0.219
1010178.000000,0.068,-0.834,-0.495,-84.36,-26.77,-13.71,-1.50,38.13,-13.17,-173.66,-60.86,-118.90,0.460,-0.756,-0.413,0.216
1010188.000000,0.051,-0.842,-0.486,-84.73,-26.92,-7.48,-1.60,38.23,-12.38,-173.83,-59.99,-118.79,0.453,-0.758,-0.417,0.214
1010198.000000,0.030,-0.847,-0.500,-91.75,-25.03,-4.53,-1.42,38.31,-12.29,-174.11,-59.14,-118.81,0.447,-0.761,-0.420,0.212
1010208.000000,0.016,-0.842,-0.535,-99.32,-17.54,-4.56,-1.77,37.27,-11.75,-174.43,-58.23,-118.89,0.440,-0.763,-0.423,0.211
1010218.000000,0.024,-0.834,-0.589,-102.46,-4.76,-5.46,-1.46,37.43,-11.46,-174.70,-57.25,-118.98,0.433,-0.767,-0.426,0.208
1010228.000000,0.042,-0.829,-0.649,-99.54,7.33,-5.93,-1.73,37.67,-10.96,-174.84,-56.23,-119.06,0.426,-0.770,-0.428,0.204
1010238.000000,0.050,-0.830,-0.708,-90.71,16.93,-4.35,-1.83,37.85,-10.46,-174.83,-55.23,-119.13,0.419,-0.774,-0.430,0.200
1010248.000000,0.060,-0.831,-0.740,-78.01,17.20,-0.62,-2.56,38.08,-9.63,-174.73,-54.31,-119.19,0.414,-0.777,-0.432,0.195
1010258.000000,0.054,-0.825,-0.753,-68.35,10.29,3.95,-2.79,38.68,-8.83,-174.65,-53.51,-119.30,0.409,-0.780,-0.433,0.191
1010268.000000,0.039,-0.820,-0.732,-64.97,4.31,6.85,-2.88,38.77,-8.71,-174.66,-52.82,-119.46,0.405,-0.783,-0.433,0.188
1010278.000000,0.058,-0.813,-0.679,-62.18,3.61,7.42,-2.88,38.81,-8.21,-174.78,-52.18,-119.67,0.400,-0.786,-0.434,0.185
1010288.000000,0.072,-0.786,-0.632,-60.12,6.34,7.69,-2.79,38.77,-8.04,-174.91,-51.56,-119.88,0.396,-0.788,-0.434,0.183
1010298.000000,0.060,-0.774,-0.627,-59.18,-1.54,8.16,-3.43,39.04,-7.54,-175.01,-50.96,-120.09,0.392,-0.791,-0.434,0.181
1010308.000000,0.020,-0.737,-0.617,-58.95,-10.00,9.53,-3.02,39.23,-7.17,-175.17,-50.38,-120.30,0.388,-0.793,-0.434,0.179
1010318.000000,-0.011,-0.716,-0.625,-59.82,-11.37,10.70,-3.48,39.14,-6.46,-175.43,-49.80,-120.52,0.383,-0.795,-0.435,0.177
1010328.000000,-0.032,-0.696,-0.658,-61.09,-9.00,8.98,-3.71,39.31,-6.25,-175.73,-49.21,-120.75,0.378,-0.797,-0.436,0.176
1010338.000000,-0.022,-0.702,-0.705,-59.74,-4.21,4.23,-3.33,39.46,-6.33,-175.98,-48.61,-120.96,0.374,-0.800,-0.436,0.175
1010348.000000,-0.004,-0.730,-0.731,-54.16,5.42,-0.81,-3.75,39.68,-6.13,-176.14,-48.02,-121.10,0.369,-0.802,-0.437,0.173
1010358.000000,0.041,-0.747,-0.727,-46.20,15.74,-3.35,-3.21,39.50,-5.38,-176.14,-47.47,-121.16,0.365,-0.804,-0.438,0.171
1010368.000000,0.085,-0.767,-0.751,-37.97,10.03,-2.93,-3.10,39.27,-5.17,-176.01,-46.99,-121.17,0.363,-0.805,-0.438,0.168
1010378.000000,0.072,-0.781,-0.760,-32.11,0.56,2.05,-3.06,39.60,-5.17,-175.89,-46.60,-121.16,0.360,-0.806,-0.438,0.165
1010388.000000,0.060,-0.742,-0.734,-26.84,-3.82,8.38,-3.56,39.42,-4.92,-175.91,-46.27,-121.22,0.358,-0.808,-0.439,0.164
1010398.000000,0.043,-0.719,-0.712,-20.50,-5.68,12.65,-3.33,39.38,-4.42,-176.05,-46.00,-121.35,0.356,-0.809,-0.439,0.164
1010408.000000,0.032,-0.699,-0.684,-15.67,-2.57,14.44,-3.39,39.27,-4.58,-176.24,-45.80,-121.55,0.354,-0.810,-0.438,0.164
1010418.000000,0.036,-0.685,-0.680,-10.63,-5.88,12.93,-3.63,39.60,-4.54,-176.43,-45.64,-121.77,0.353,-0.811,-0.438,0.164
1010428.000000,0.024,-0.703,-0.692,-7.94,-12.39,12.71,-2.68,39.77,-4.46,-176.62,-45.54,-121.97,0.351,-0.812,-0.437,0.164
1010438.000000,0.009,-0.702,-0.702,-9.87,-8.88,14.32,-2.79,39.60,-4.38,-176.88,-45.46,-122.15,0.350,-0.812,-0.437,0.165
1010448.000000,-0.002,-0.702,-0.735,-11.74,-7.65,13.89,-3.02,39.64,-4.46,-177.12,-45.38,-122.36,0.349,-0.813,-0.436,0.166
1010458.000000,-0.006,-0.704,-0.752,-10.75,-12.45,10.47,-2.56,38.64,-4.46,-177.35,-45.27,-122.57,0.348,-0.814,-0.436,0.166
1010468.000000,-0.011,-0.707,-0.779,-5.70,-13.14,7.40,-2.33,38.81,-4.13,-177.59,-45.16,-122.74,0.346,-0.814,-0.435,0.167
1010478.000000,-0.012,-0.729,-0.800,0.87,-12.72,4.33,-2.52,38.96,-4.17,-177.80,-45.10,-122.85,0.345,-0.814,-0.435,0.168
1010488.000000,0.009,-0.725,-0.761,8.34,-8.85,3.28,-2.60,38.64,-4.17,-177.98,-45.09,-122.92,0.345,-0.814,-0.435,0.169
1010498.000000,0.002,-0.728,-0.720,15.49,-9.09,5.10,-2.29,38.73,-4.33,-178.11,-45.17,-122.97,0.345,-0.814,-0.435,0.170
1010508.000000,-0.009,-0.725,-0.703,19.36,-13.95,5.07,-1.88,39.31,-4.58,-178.25,-45.31,-123.03,0.345,-0.814,-0.435,0.171
1010518.000000,-0.004,-0.725,-0.701,22.08,-11.58,3.79,-2.14,39.27,-4.71,-178.43,-45.50,-123.10,0.346,-0.813,-0.435,0.173
1010528.000000,0.013,-0.730,-0.687,26.40,-4.65,2.56,-2.00,39.60,-4.96,-178.59,-45.72,-123.15,0.347,-0.813,-0.434,0.175
1010538.000000,0.024,-0.734,-0.678,31.31,-2.25,2.91,-2.00,38.68,-5.00,-178.67,-45.98,-123.18,0.349,-0.812,-0.434,0.176
1010548.000000,0.006,-0.733,-0.697,35.11,-7.25,5.16,-1.83,39.38,-5.04,-178.72,-46.29,-123.22,0.351,-0.811,-0.433,0.178
1010558.000000,-0.012,-0.726,-0.720,39.09,-10.62,6.63,-1.68,39.27,-5.63,-178.82,-46.64,-123.27,0.353,-0.810,-0.433,0.180
1010568.000000,-0.015,-0.733,-0.752,45.12,-11.89,4.81,-1.50,39.38,-5.50,-178.99,-47.03,-123.36,0.355,-0.809,-0.432,0.182
1010578.000000,-0.008,-0.750,-0.777,52.09,-8.84,2.52,-1.14,39.04,-5.96,-179.16,-47.46,-123.43,0.358,-0.808,-0.431,0.185
1010588.000000,0.002,-0.747,-0.758,60.79,-7.16,1.71,-1.08,39.42,-6.38,-179.29,-47.97,-123.46,0.361,-0.806,-0.430,0.187
1010598.000000,-0.018,-0.741,-0.736,69.30,-11.25,1.66,-1.00,39.27,-6.79,-179.37,-48.56,-123.48,0.365,-0.804,-0.430,0.190
1010608.000000,-0.028,-0.757,-0.706,75.63,-13.23,1.95,-1.54,39.31,-7.04,-179.49,-49.24,-123.50,0.369,-0.802,-0.429,0.194
1010618.000000,-0.021,-0.777,-0.652,78.87,-11.68,-0.74,-1.83,39.08,-7.67,-179.64,-49.98,-123.52,0.373,-0.799,-0.428,0.197
1010628.000000,-0.017,-0.808,-0.601,78.94,-10.70,-4.92,-1.38,39.27,-8.17,-179.76,-50.76,-123.51,0.378,-0.796,-0.427,0.201
1010638.000000,-0.004,-0.824,-0.581,75.26,-11.23,-8.48,-1.73,38.81,-8.83,-179.81,-51.55,-123.44,0.384,-0.793,-0.426,0.205
1010648.000000,0.030,-0.825,-0.585,73.77,-8.96,-8.36,-1.38,39.00,-9.33,-179.82,-52.31,-123.31,0.389,-0.790,-0.426,0.208
1010658.000000,0.025,-0.838,-0.572,76.83,-6.91,-4.89,-1.42,38.77,-9.50,-179.80,-53.05,-123.17,0.394,-0.787,-0.425,0.211
1010668.000000,0.024,-0.842,-0.561,83.23,-9.92,0.17,-1.54,38.58,-10.42,-179.79,-53.82,-123.07,0.399,-0.784,-0.424,0.214
1010678.000000,0.003,-0.839,-0.596,92.68,-17.95,3.61,-0.96,38.08,-10.83,-179.87,-54.65,-123.05,0.404,-0.781,-0.423,0.218
1010688.000000,-0.015,-0.843,-0.665,100.42,-18.89,4.63,-1.50,38.18,-11.67,179.92,-55.57,-123.10,0.410,-0.778,-0.422,0.223
1010698.000000,-0.019,-0.826,-0.711,113.26,-13.73,4.77,-0.96,37.85,-11.79,179.66,-56.56,-123.19,0.415,-0.774,-0.420,0.228
1010708.000000,-0.027,-0.812,-0.711,133.81,-13.65,5.65,-0.23,38.00,-12.38,179.43,-57.67,-123.29,0.422,-0.770,-0.418,0.233
1010718.000000,-0.049,-0.818,-0.668,155.03,-20.24,7.46,-0.27,37.67,-13.54,179.17,-58.97,-123.43,0.430,-0.765,-0.416,0.239
1010728.000000,-0.069,-0.838,-0.596,170.70,-25.83,7.84,0.46,37.43,-14.00,178.81,-60.48,-123.63,0.440,-0.759,-0.413,0.246
1010738.000000,-0.083,-0.871,-0.524,177.72,-28.12,4.83,0.63,36.48,-15.13,178.33,-62.15,-123.89,0.450,-0.752,-0.409,0.254
1010748.000000,-0.055,-0.868,-0.436,175.86,-25.46,-0.14,0.50,36.17,-16.33,177.82,-63.91,-124.14,0.460,-0.745,-0.406,0.262
1010758.000000,-0.052,-0.863,-0.380,169.13,-19.42,-1.80,0.50,36.17,-16.33,177.39,-65.66,-124.34,0.470,-0.737,-0.403,0.270
1010768.000000,-0.063,-0.934,-0.367,163.51,-19.92,-5.20,0.81,35.43,-18.04,177.03,-67.36,-124.51,0.481,-0.730,-0.400,0.277
1010778.000000,-0.044,-0.947,-0.329,160.25,-22.54,-14.78,0.58,34.83,-18.88,176.72,-69.00,-124.63,0.490,-0.722,-0.397,0.284
1010788.000000,-0.027,-0.938,-0.323,158.57,-30.18,-26.23,1.27,34.48,-19.46,176.59,-70.61,-124.52,0.500,-0.714,-0.395,0.290
1010798.000000,0.007,-0.969,-0.356,159.66,-16.37,-29.50,0.77,34.02,-20.46,176.75,-72.21,-124.04,0.509,-0.705,-0.394,0.297
1010808.000000,0.023,-0.984,-0.305,168.14,5.24,-24.17,0.77,34.02,-20.46,177.25,-73.82,-123.33,0.519,-0.697,-0.392,0.302
1010818.000000,0.014,-0.982,-0.255,180.57,12.16,-16.25,0.85,32.42,-22.71,177.93,-75.49,-122.65,0.530,-0.688,-0.389,0.306
1010828.000000,-0.010,-0.962,-0.168,186.50,5.23,-9.17,1.00,32.27,-23.42,178.53,-77.28,-122.15,0.542,-0.680,-0.385,0.311
1010838.000000,-0.001,-0.931,-0.084,185.15,-2.05,-6.32,1.54,31.04,-24.21,178.89,-79.13,-121.85,0.553,-0.671,-0.380,0.316
1010848.000000,0.004,-0.920,-0.072,179.41,-16.22,-6.96,1.18,30.54,-25.13,179.06,-80.99,-121.67,0.564,-0.661,-0.375,0.322
1010858.000000,-0.007,-0.923,-0.053,174.52,-31.84,-8.27,1.18,30.54,-25.13,179.20,-82.80,-121.38,0.574,-0.652,-0.371,0.328
1010868.000000,0.003,-0.922,-0.045,175.77,-31.56,-10.36,1.42,29.08,-25.79,179.44,-84.55,-120.84,0.583,-0.642,-0.368,0.335
1010878.000000,0.002,-0.954,-0.008,179.26,-16.73,-10.75,0.81,28.17,-26.71,-179.68,-86.31,-119.64,0.592,-0.632,-0.365,0.342
1010888.000000,0.005,-0.970,0.050,179.94,-3.19,-9.31,1.00,27.21,-27.29,-176.44,-88.09,-116.21,0.602,-0.621,-0.361,0.348
1010898.000000,0.011,-0.954,0.134,175.96,-2.04,-7.96,1.50,26.33,-27.63,-115.37,-89.77,-55.08,0.612,-0.611,-0.357,0.354
1010908.000000,0.003,-0.927,0.183,168.32,-10.64,-6.69,1.50,26.33,-27.63,-9.95,-88.30,50.36,0.621,-0.601,-0.352,0.359
1010918.000000,-0.017,-0.917,0.185,158.98,-15.10,-6.20,1.00,25.00,-29.29,-6.19,-86.61,54.22,0.630,-0.592,-0.347,0.364
1010928.000000,-0.031,-0.918,0.192,152.34,-7.28,-7.09,0.50,23.85,-29.83,-5.03,-84.99,55.53,0.638,-0.582,-0.343,0.369
1010938.000000,-0.019,-0.904,0.199,149.99,4.34,-9.08,0.85,23.27,-30.33,-4.50,-83.45,56.15,0.646,-0.573,-0.339,0.374
1010948.000000,-0.005,-0.919,0.206,150.05,10.36,-11.41,1.14,22.81,-31.00,-4.22,-81.93,56.40,0.654,-0.564,-0.334,0.378
1010958.000000,0.018,-0.935,0.251,153.34,8.86,-12.60,1.14,22.81,-31.00,-4.10,-80.41,56.42,0.662,-0.556,-0.329,0.381
1010968.000000,0.036,-0.930,0.323,158.61,0.68,-12.51,1.08,20.25,-31.08,-4.07,-78.87,56.36,0.670,-0.547,-0.324,0.384
1010978.000000,0.040,-0.930,0.392,159.71,-9.81,-9.78,1.04,19.56,-31.54,-4.11,-77.28,56.30,0.678,-0.537,-0.319,0.388
1010988.000000,0.050,-0.925,0.443,155.53,-16.54,-5.79,1.23,18.14,-31.79,-4.14,-75.67,56.36,0.685,-0.527,-0.315,0.392
1010998.000000,0.045,-0.930,0.460,147.68,-12.03,-1.32,1.04,17.56,-32.29,-4.11,-74.09,56.55,0.692,-0.517,-0.310,0.397
1011008.000000,0.036,-0.914,0.452,138.95,0.85,2.74,1.04,17.56,-32.29,-3.96,-72.60,56.84,0.699,-0.507,-0.306,0.401
1011018.000000,0.017,-0.900,0.407,130.70,10.65,6.87,1.60,16.27,-32.54,-3.61,-71.19,57.21,0.705,-0.498,-0.301,0.405
1011028.000000,-0.020,-0.877,0.398,129.56,13.06,10.12,1.46,15.67,-33.13,-3.12,-69.87,57.64,0.711,-0.491,-0.295,0.409
1011038.000000,-0.013,-0.823,0.385,133.35,5.63,8.35,2.23,14.71,-32.79,-2.56,-68.57,58.09,0.716,-0.483,-0.290,0.412
1011048.000000,-0.031,-0.848,0.377,136.13,0.44,6.96,2.10,14.39,-33.21,-2.14,-67.24,58.48,0.721,-0.475,-0.284,0.416
1011058.000000,-0.040,-0.865,0.425,138.98,0.42,3.23,2.10,14.39,-33.21,-1.85,-65.89,58.78,0.727,-0.467,-0.279,0.419
1011068.000000,-0.022,-0.839,0.484,137.25,4.28,-2.03,1.88,12.60,-33.67,-1.67,-64.50,58.97,0.732,-0.458,-0.273,0.423
1011078.000000,-0.031,-0.813,0.543,127.77,6.74,-4.20,1.92,11.75,-33.67,-1.58,-63.13,59.04,0.738,-0.450,-0.268,0.426
1011088.000000,-0.016,-0.767,0.582,114.48,0.21,-7.02,2.06,11.33,-33.88,-1.51,-61.83,59.03,0.743,-0.441,-0.263,0.429
1011098.000000,0.003,-0.745,0.581,102.33,-14.68,-13.68,2.06,11.33,-33.88,-1.56,-60.66,58.97,0.748,-0.434,-0.259,0.431
1011108.000000,0.022,-0.743,0.549,94.92,-11.98,-14.21,2.06,11.33,-33.88,-1.85,-59.60,58.78,0.752,-0.426,-0.256,0.433
1011118.000000,0.030,-0.817,0.485,98.43,4.93,-9.67,1.46,9.81,-33.92,-2.15,-58.63,58.57,0.756,-0.419,-0.254,0.434
1011128.000000,0.054,-0.846,0.500,115.19,13.51,-4.65,1.46,9.81,-33.92,-2.23,-57.63,58.45,0.760,-0.412,-0.250,0.436
1011138.000000,0.066,-0.825,0.502,136.11,7.73,-2.41,1.38,7.89,-34.50,-2.12,-56.51,58.43,0.764,-0.405,-0.245,0.437
1011148.000000,0.043,-0.799,0.542,147.81,-7.64,2.48,1.04,7.93,-34.38,-2.01,-55.18,58.46,0.769,-0.397,-0.240,0.440
1011158.000000,0.022,-0.732,0.570,149.96,-16.71,10.97,1.27,7.04,-34.46,-1.97,-53.72,58.57,0.774,-0.387,-0.234,0.443
1011168.000000,-0.011,-0.696,0.571,146.29,-21.46,18.39,2.10,5.71,-34.54,-1.94,-52.23,58.82,0.778,-0.376,-0.229,0.447
1011178.000000,-0.034,-0.649,0.609,143.96,-26.48,20.35,1.88,4.93,-34.54,-1.87,-50.77,59.18,0.782,-0.365,-0.224,0.452
1011188.000000,-0.061,-0.598,0.653,145.89,-26.54,16.55,2.10,4.38,-34.17,-1.82,-49.33,59.57,0.785,-0.355,-0.220,0.457
1011198.000000,-0.071,-0.558,0.677,144.83,-23.70,8.06,1.92,2.96,-34.63,-1.84,-47.88,59.90,0.789,-0.344,-0.215,0.462
1011208.000000,-0.015,-0.656,0.706,143.20,-19.47,-4.56,1.77,2.04,-34.33,-1.93,-46.44,60.10,0.792,-0.333,-0.211,0.466
1011218.000000,0.036,-0.720,0.767,145.19,-5.81,-16.76,1.18,1.27,-34.38,-2.11,-45.00,60.13,0.796,-0.323,-0.206,0.469
1011228.000000,0.076,-0.714,0.779,148.07,7.47,-21.02,1.14,0.43,-34.67,-2.28,-43.54,60.00,0.800,-0.312,-0.201,0.471
1011238.000000,0.101,-0.702,0.834,151.89,7.26,-17.08,1.14,-0.39,-34.42,-2.35,-42.06,59.81,0.805,-0.301,-0.195,0.472
1011248.000000,0.109,-0.671,0.933,157.50,3.73,-6.08,1.23,-1.58,-34.00,-2.38,-40.54,59.65,0.810,-0.291,-0.189,0.473
1011258.000000,0.104,-0.579,1.018,159.94,-15.13,2.34,1.27,-2.27,-33.75,-2.35,-38.97,59.64,0.814,-0.280,-0.183,0.475
1011268.000000,0.070,-0.541,1.035,150.93,-41.90,6.18,1.60,-3.38,-33.67,-2.41,-37.38,59.74,0.818,-0.268,-0.177,0.477
1011278.000000,0.053,-0.513,1.023,133.82,-53.90,7.57,1.60,-3.92,-33.08,-2.70,-35.86,59.89,0.821,-0.255,-0.173,0.481
1011288.000000,0.037,-0.476,0.970,113.15,-42.84,8.32,1.18,-5.17,-33.13,-3.13,-34.50,60.07,0.822,-0.244,-0.171,0.485
1011298.000000,0.024,-0.466,0.889,92.73,-18.85,8.52,0.85,-5.67,-33.21,-3.47,-33.35,60.25,0.824,-0.233,-0.169,0.488
1011308.000000,0.047,-0.450,0.847,80.81,-2.78,6.62,0.58,-6.63,-32.71,-3.60,-32.39,60.42,0.825,-0.226,-0.166,0.491
1011318.000000,0.067,-0.497,0.850,80.76,-9.00,2.43,0.23,-6.81,-32.75,-3.57,-31.58,60.56,0.826,-0.220,-0.163,0.492
1011328.000000,0.085,-0.518,0.899,86.04,-14.12,0.65,0.00,-7.27,-33.25,-3.59,-30.77,60.66,0.828,-0.214,-0.160,0.494
1011338.000000,0.099,-0.497,0.997,91.07,-5.13,3.50,-0.08,-7.93,-32.71,-3.70,-29.92,60.73,0.829,-0.207,-0.157,0.495
1011348.000000,0.107,-0.457,1.080,87.71,2.13,9.22,-0.46,-8.58,-32.92,-3.71,-29.02,60.83,0.830,-0.200,-0.154,0.497
1011358.000000,0.099,-0.435,1.114,75.72,-8.65,12.70,-0.31,-9.18,-32.54,-3.62,-28.14,60.99,0.831,-0.194,-0.150,0.499
1011368.000000,0.068,-0.427,1.096,63.38,-20.78,14.55,-0.39,-8.85,-31.88,-3.60,-27.38,61.19,0.832,-0.188,-0.147,0.501
1011378.000000,0.040,-0.424,1.064,51.46,-18.23,14.13,-0.31,-9.64,-31.63,-3.70,-26.74,61.39,0.832,-0.183,-0.145,0.503
1011388.000000,0.030,-0.421,1.013,38.73,-4.83,10.31,-0.96,-9.88,-31.67,-3.80,-26.22,61.59,0.832,-0.178,-0.144,0.505
1011398.000000,0.038,-0.413,0.963,26.84,6.10,4.63,-0.92,-10.23,-31.58,-3.80,-25.82,61.74,0.832,-0.175,-0.142,0.506
1011408.000000,0.044,-0.401,0.907,20.09,7.33,-0.31,-1.18,-9.81,-31.21,-3.72,-25.55,61.82,0.833,-0.173,-0.141,0.507
1011418.000000,0.049,-0.385,0.887,19.81,6.58,-2.94,-0.50,-10.79,-31.46,-3.63,-25.33,61.84,0.833,-0.172,-0.139,0.507
1011428.000000,0.058,-0.378,0.873,23.60,4.78,-2.28,-0.31,-10.88,-31.33,-3.57,-25.13,61.83,0.833,-0.171,-0.138,0.507
1011438.000000,0.025,-0.363,0.914,27.18,-1.06,0.58,-0.63,-11.14,-31.04,-3.53,-24.90,61.82,0.834,-0.169,-0.136,0.507
1011448.000000,0.021,-0.327,0.932,23.90,-5.34,-0.05,-0.31,-11.14,-31.38,-3.52,-24.63,61.84,0.834,-0.167,-0.135,0.507
1011458.000000,0.024,-0.371,0.971,30.07,-4.40,-5.78,-0.39,-11.18,-31.25,-3.56,-24.39,61.86,0.835,-0.165,-0.135,0.508
1011468.000000,0.062,-0.413,1.022,39.56,3.44,-10.78,-0.13,-11.56,-31.25,-3.62,-24.09,61.82,0.835,-0.163,-0.134,0.508
1011478.000000,0.092,-0.427,1.086,39.28,14.38,-9.43,-0.39,-11.48,-31.33,-3.63,-23.69,61.74,0.836,-0.160,-0.132,0.507
1011488.000000,0.087,-0.421,1.104,28.15,11.71,-4.18,0.08,-11.60,-30.92,-3.53,-23.29,61.66,0.837,-0.158,-0.129,0.507
1011498.000000,0.064,-0.396,1.082,13.90,1.14,-0.62,-0.08,-11.52,-30.92,-3.42,-22.99,61.63,0.838,-0.156,-0.127,0.507
1011508.000000,0.048,-0.374,1.049,2.80,-4.42,0.19,0.13,-11.64,-30.96,-3.39,-22.83,61.63,0.838,-0.155,-0.126,0.507
1011518.000000,0.031,-0.366,1.029,-4.73,0.22,-0.09,-0.54,-11.88,-30.67,-3.43,-22.79,61.63,0.838,-0.155,-0.126,0.507
1011528.000000,0.040,-0.348,1.018,-10.76,7.70,-2.52,-0.73,-11.88,-30.71,-3.44,-22.83,61.63,0.838,-0.155,-0.127,0.507
1011538.000000,0.052,-0.358,1.000,-16.11,10.11,-5.84,-0.54,-11.92,-30.58,-3.38,-22.92,61.60,0.838,-0.156,-0.126,0.507
1011548.000000,0.062,-0.391,0.996,-20.34,7.57,-8.42,-0.35,-11.79,-30.75,-3.30,-23.07,61.53,0.839,-0.157,-0.126,0.506
1011558.000000,0.064,-0.389,1.002,-24.45,8.15,-8.13,-0.58,-11.71,-30.79,-3.26,-23.26,61.43,0.839,-0.159,-0.127,0.505
1011568.000000,0.058,-0.389,1.024,-29.87,8.97,-6.31,-0.27,-12.56,-30.67,-3.23,-23.49,61.32,0.839,-0.161,-0.127,0.504
1011578.000000,0.063,-0.400,1.028,-35.87,6.42,-5.96,-0.04,-11.88,-30.63,-3.17,-23.77,61.24,0.839,-0.163,-0.128,0.503
1011588.000000,0.069,-0.415,1.041,-43.36,3.35,-5.83,-0.39,-12.06,-30.79,-3.14,-24.11,61.15,0.839,-0.166,-0.129,0.502
1011598.000000,0.063,-0.422,1.034,-51.76,6.07,-4.30,-0.13,-11.75,-31.13,-3.14,-24.53,61.06,0.838,-0.169,-0.131,0.501
1011608.000000,0.059,-0.427,1.032,-60.01,10.53,-3.15,-0.08,-11.42,-30.83,-3.12,-25.03,60.98,0.838,-0.173,-0.133,0.500
1011618.000000,0.059,-0.430,1.040,-67.36,13.29,-2.52,0.27,-10.46,-31.54,-3.05,-25.62,60.91,0.837,-0.178,-0.135,0.499
1011628.000000,0.056,-0.417,1.045,-75.02,15.01,-1.48,0.27,-9.88,-31.42,-2.95,-26.28,60.84,0.837,-0.183,-0.137,0.498
1011638.000000,0.036,-0.423,1.042,-82.81,17.12,-0.24,0.35,-9.46,-31.75,-2.83,-27.02,60.78,0.836,-0.189,-0.139,0.497
1011648.000000,0.040,-0.443,1.038,-89.96,21.42,-1.30,0.81,-8.81,-31.96,-2.68,-27.84,60.73,0.834,-0.196,-0.141,0.495
1011658.000000,0.059,-0.475,1.055,-96.28,26.10,-2.87,1.04,-8.13,-31.92,-2.50,-28.73,60.67,0.833,-0.203,-0.144,0.494
1011668.000000,0.055,-0.482,1.072,-104.39,25.39,-0.47,0.35,-7.89,-32.25,-2.28,-29.68,60.60,0.832,-0.211,-0.146,0.492
1011678.000000,0.038,-0.480,1.050,-117.64,18.81,2.58,0.46,-7.31,-32.46,-2.06,-30.72,60.54,0.830,-0.220,-0.148,0.490
1011688.000000,0.022,-0.474,1.020,-131.65,15.89,3.70,0.31,-6.67,-32.29,-1.87,-31.87,60.52,0.828,-0.229,-0.152,0.488
1011698.000000,0.027,-0.506,0.973,-142.65,21.45,2.65,0.68,-5.75,-32.58,-1.71,-33.17,60.51,0.826,-0.239,-0.156,0.487
1011708.000000,0.052,-0.552,0.961,-150.05,31.40,0.70,0.63,-4.60,-32.88,-1.51,-34.59,60.50,0.823,-0.250,-0.161,0.484
1011718.000000,0.069,-0.579,0.961,-155.19,40.32,2.93,1.31,-3.42,-33.13,-1.23,-36.06,60.47,0.820,-0.262,-0.165,0.482
1011728.000000,0.052,-0.588,0.948,-160.56,39.99,9.45,1.50,-2.83,-33.58,-0.84,-37.61,60.47,0.817,-0.275,-0.168,0.479
1011738.000000,-0.001,-0.602,0.912,-167.62,33.10,15.06,2.00,-1.58,-33.58,-0.38,-39.21,60.56,0.813,-0.288,-0.172,0.476
1011748.000000,-0.043,-0.568,0.875,-175.65,25.69,12.87,1.92,-0.73,-33.75,0.08,-40.88,60.74,0.809,-0.301,-0.176,0.474
1011758.000000,-0.039,-0.546,0.815,-185.81,19.01,3.74,2.60,0.35,-33.88,0.47,-42.60,60.93,0.804,-0.315,-0.181,0.471
1011768.000000,-0.032,-0.558,0.734,-198.19,20.11,-2.60,2.29,0.31,-34.00,0.74,-44.42,61.03,0.799,-0.329,-0.187,0.468
1011778.000000,-0.025,-0.584,0.664,-206.07,27.55,-4.06,2.00,1.54,-33.63,0.95,-46.37,61.04,0.793,-0.343,-0.193,0.464
1011788.000000,-0.016,-0.643,0.611,-206.70,32.24,-4.09,2.23,2.54,-33.96,1.22,-48.42,61.04,0.788,-0.358,-0.200,0.459
1011798.000000,-0.001,-0.725,0.563,-203.39,31.54,-3.91,2.56,3.75,-33.92,1.54,-50.49,61.06,0.782,-0.374,-0.206,0.454
1011808.000000,0.008,-0.732,0.541,-197.69,25.82,-2.01,2.88,4.98,-33.54,1.89,-52.53,61.09,0.776,-0.389,-0.212,0.449
1011818.000000,-0.011,-0.734,0.533,-189.36,18.53,2.48,3.79,7.43,-33.83,2.22,-54.51,61.17,0.770,-0.403,-0.218,0.445
1011828.000000,-0.031,-0.759,0.507,-182.32,13.97,5.54,3.67,8.68,-33.92,2.55,-56.41,61.34,0.763,-0.416,-0.224,0.440
1011838.000000,-0.042,-0.792,0.488,-178.64,16.25,4.64,3.89,9.60,-34.00,2.91,-58.23,61.60,0.757,-0.429,-0.230,0.437
1011848.000000,-0.040,-0.816,0.449,-178.13,23.39,2.18,3.75,10.60,-33.75,3.31,-60.01,61.88,0.750,-0.442,-0.235,0.433
1011858.000000,-0.040,-0.846,0.407,-178.98,26.62,-1.05,3.89,11.79,-33.46,3.79,-61.78,62.17,0.743,-0.454,-0.241,0.428
1011868.000000,-0.042,-0.848,0.352,-179.67,28.37,-3.49,3.56,13.17,-33.04,4.29,-63.56,62.43,0.737,-0.467,-0.246,0.423
1011879.000000,-0.060,-0.862,0.290,-180.67,32.17,-4.33,4.02,14.21,-33.08,4.80,-65.35,62.69,0.730,-0.479,-0.250,0.418
1011889.000000,-0.077,-0.871,0.240,-181.20,37.58,-5.91,3.98,14.77,-32.33,5.39,-67.16,62.99,0.723,-0.492,-0.255,0.413
1011899.000000,-0.094,-0.891,0.172,-180.59,47.29,-9.10,4.02,16.18,-32.46,6.09,-68.98,63.35,0.716,-0.504,-0.260,0.407
1011909.000000,-0.091,-0.922,0.120,-178.43,62.02,-12.62,3.98,17.14,-31.96,6.90,-70.80,63.72,0.709,-0.517,-0.264,0.400
1011919.000000,-0.095,-0.948,0.094,-170.64,85.66,-17.58,5.04,18.00,-31.04,7.87,-72.61,64.11,0.703,-0.530,-0.267,0.392
1011929.000000,-0.093,-0.945,0.120,-160.03,108.17,-22.68,5.31,19.10,-30.71,9.04,-74.36,64.46,0.697,-0.543,-0.268,0.383
1011938.000000,-0.072,-0.930,0.171,-150.69,123.42,-28.18,5.92,20.02,-30.08,10.34,-76.02,64.71,0.692,-0.556,-0.268,0.373
1011948.000000,-0.034,-0.910,0.246,-148.56,128.32,-32.79,6.10,20.85,-28.83,11.69,-77.57,64.84,0.689,-0.569,-0.267,0.362
1011958.000000,0.014,-0.918,0.264,-150.20,114.72,-35.30,6.68,21.17,-28.54,13.00,-79.10,64.88,0.685,-0.581,-0.266,0.350
1011968.000000,0.050,-0.939,0.215,-153.48,66.39,-35.73,6.88,22.77,-27.75,14.23,-80.63,64.94,0.682,-0.592,-0.265,0.339
1011978.000000,0.032,-0.976,0.140,-152.39,4.53,-30.58,7.06,23.58,-27.17,15.14,-82.17,65.13,0.676,-0.602,-0.267,0.329
1011988.000000,-0.020,-0.962,0.103,-145.01,-32.14,-19.56,6.73,24.27,-26.46,15.89,-83.71,65.76,0.670,-0.611,-0.272,0.323
1011998.000000,-0.064,-0.968,0.080,-140.31,-29.69,-10.69,6.64,25.06,-26.50,17.77,-85.16,67.93,0.662,-0.618,-0.279,0.320
1012008.000000,-0.052,-0.988,0.060,-140.59,-16.36,-12.22,6.33,25.73,-26.04,22.59,-86.52,73.07,0.654,-0.625,-0.285,0.317
1012018.000000,-0.016,-0.972,0.052,-144.13,-9.11,-15.38,6.64,26.71,-25.54,33.80,-87.81,84.48,0.646,-0.632,-0.291,0.314
1012028.000000,0.021,-0.978,0.023,-146.97,-12.03,-13.90,6.46,27.21,-25.17,69.99,-88.86,120.78,0.638,-0.639,-0.296,0.310
1012038.000000,0.017,-0.997,-0.015,-146.08,-18.11,-8.84,6.23,27.93,-24.67,138.79,-88.59,-170.30,0.630,-0.647,-0.302,0.306
1012048.000000,0.008,-1.028,-0.032,-141.57,-16.12,-1.12,6.38,28.06,-24.29,161.60,-87.35,-147.30,0.622,-0.654,-0.307,0.303
1012058.000000,-0.034,-1.038,-0.054,-136.14,-16.44,0.73,5.92,29.08,-23.54,168.22,-85.99,-140.50,0.613,-0.661,-0.312,0.300
1012068.000000,-0.044,-0.987,-0.037,-134.67,-18.19,-1.87,4.63,29.48,-23.04,171.00,-84.65,-137.55,0.605,-0.668,-0.316,0.297
1012078.000000,-0.038,-0.985,-0.047,-139.31,-9.90,-3.31,4.35,30.08,-22.67,172.75,-83.32,-135.61,0.596,-0.674,-0.321,0.294
1012088.000000,-0.040,-1.007,-0.046,-148.94,-1.81,-6.63,3.67,30.68,-22.42,174.08,-81.96,-134.16,0.588,-0.681,-0.325,0.291
1012098.000000,-0.041,-0.963,-0.037,-161.00,6.14,-9.51,3.93,31.08,-21.71,175.30,-80.50,-132.89,0.579,-0.688,-0.329,0.287
1012108.000000,-0.029,-0.907,-0.054,-175.15,8.46,-13.21,3.85,31.88,-21.42,176.46,-78.94,-131.76,0.570,-0.696,-0.333,0.281
1012118.000000,-0.012,-0.890,-0.136,-186.75,-0.05,-18.45,5.17,32.46,-19.88,177.55,-77.23,-130.73,0.560,-0.704,-0.338,0.275
1012128.000000,0.012,-0.902,-0.237,-190.98,-9.91,-24.53,4.89,32.96,-19.00,178.54,-75.39,-129.72,0.549,-0.713,-0.343,0.269
1012138.000000,0.014,-0.927,-0.315,-187.23,-7.79,-26.67,4.43,33.33,-18.42,179.42,-73.50,-128.72,0.538,-0.721,-0.349,0.263
1012148.000000,0.007,-0.927,-0.314,-178.45,4.07,-24.44,3.75,34.21,-16.96,-179.79,-71.63,-127.81,0.526,-0.729,-0.356,0.256
1012158.000000,0.053,-0.930,-0.330,-174.15,19.38,-20.33,3.93,34.56,-16.13,-179.11,-69.83,-127.11,0.515,-0.736,-0.361,0.249
1012168.000000,0.077,-0.975,-0.390,-178.50,21.96,-17.10,2.98,35.85,-15.46,-178.49,-68.08,-126.63,0.505,-0.744,-0.365,0.242
1012178.000000,0.098,-0.969,-0.490,-186.08,3.87,-15.66,3.10,36.21,-14.58,-177.98,-66.30,-126.32,0.495,-0.751,-0.369,0.234
1012188.000000,0.082,-0.904,-0.586,-190.36,-14.10,-10.92,2.46,36.93,-13.75,-177.71,-64.45,-126.10,0.483,-0.759,-0.374,0.227
1012198.000000,0.048,-0.821,-0.661,-184.87,-22.13,-2.68,2.18,37.35,-12.58,-177.74,-62.55,-126.00,0.470,-0.766,-0.379,0.221
1012208.000000,0.019,-0.769,-0.700,-168.33,-22.08,5.39,1.73,37.67,-12.00,-178.01,-60.68,-126.06,0.457,-0.773,-0.384,0.216
1012218.000000,-0.004,-0.772,-0.698,-146.26,-12.37,12.41,1.92,38.27,-10.83,-178.40,-58.97,-126.25,0.444,-0.780,-0.387,0.212
1012228.000000,-0.031,-0.752,-0.677,-130.28,2.25,15.96,1.60,38.27,-10.00,-178.78,-57.47,-126.54,0.433,-0.786,-0.390,0.208
1012238.000000,-0.043,-0.756,-0.657,-121.68,11.89,12.48,1.64,38.46,-9.38,-179.06,-56.13,-126.88,0.424,-0.791,-0.391,0.204
1012248.000000,-0.045,-0.761,-0.618,-116.87,20.52,4.22,1.88,38.88,-8.46,-179.17,-54.89,-127.15,0.415,-0.796,-0.392,0.199
1012259.000000,-0.027,-0.720,-0.600,-119.00,35.20,-2.61,1.31,38.81,-8.17,-179.09,-53.71,-127.28,0.408,-0.801,-0.393,0.194
1012268.000000,0.001,-0.706,-0.647,-124.60,39.62,-9.18,0.39,39.46,-7.38,-178.77,-52.51,-127.29,0.401,-0.806,-0.394,0.188
1012278.000000,0.009,-0.680,-0.724,-124.39,33.25,-14.39,0.50,39.54,-6.67,-178.32,-51.27,-127.21,0.393,-0.810,-0.395,0.180
1012289.000000,0.026,-0.687,-0.756,-114.03,26.53,-15.54,0.13,39.68,-5.67,-177.86,-50.02,-127.06,0.386,-0.815,-0.397,0.173
1012299.000000,0.031,-0.669,-0.776,-103.25,20.24,-15.91,0.13,40.18,-5.29,-177.46,-48.85,-126.90,0.379,-0.818,-0.399,0.167
1012309.000000,0.036,-0.677,-0.776,-90.63,15.47,-15.65,-0.50,40.10,-5.04,-177.13,-47.78,-126.73,0.372,-0.822,-0.401,0.161
1012319.000000,0.057,-0.693,-0.769,-78.62,15.21,-12.76,-0.46,40.83,-4.25,-176.86,-46.84,-126.58,0.366,-0.824,-0.403,0.156
1012329.000000,0.069,-0.730,-0.750,-71.79,14.40,-7.84,-0.58,40.56,-4.08,-176.62,-46.03,-126.45,0.361,-0.827,-0.404,0.152
1012339.000000,0.063,-0.734,-0.693,-68.86,12.29,-2.06,-1.04,40.46,-3.42,-176.43,-45.29,-126.39,0.356,-0.829,-0.405,0.148
1012349.000000,0.067,-0.708,-0.667,-70.06,11.90,4.02,-1.14,40.98,-3.00,-176.32,-44.60,-126.41,0.352,-0.831,-0.406,0.144
1012359.000000,0.063,-0.687,-0.684,-72.88,3.09,7.86,-1.42,41.25,-3.08,-176.27,-43.91,-126.52,0.347,-0.833,-0.406,0.141
1012369.000000,0.034,-0.663,-0.704,-72.47,-6.15,10.95,-1.04,40.88,-1.83,-176.34,-43.20,-126.68,0.342,-0.836,-0.406,0.139
1012379.000000,0.012,-0.664,-0.714,-70.16,-8.83,12.70,-1.23,41.25,-1.71,-176.53,-42.48,-126.89,0.337,-0.838,-0.407,0.137
1012389.000000,-0.002,-0.664,-0.667,-69.72,-3.71,11.97,-1.04,41.29,-1.38,-176.76,-41.79,-127.11,0.331,-0.841,-0.407,0.135
1012399.000000,0.006,-0.651,-0.633,-74.61,8.35,10.98,-1.64,41.33,-1.13,-176.95,-41.10,-127.33,0.326,-0.843,-0.407,0.133
1012409.000000,0.020,-0.686,-0.655,-88.37,13.21,8.18,-1.42,41.56,-0.46,-177.02,-40.37,-127.53,0.320,-0.846,-0.407,0.131
1012419.000000,0.033,-0.682,-0.697,-104.84,9.17,4.34,-1.46,41.56,0.04,-177.01,-39.53,-127.70,0.314,-0.848,-0.407,0.127
1012429.000000,0.039,-0.638,-0.751,-115.38,5.18,1.91,-1.77,41.42,0.63,-177.00,-38.52,-127.84,0.307,-0.851,-0.407,0.123
1012439.000000,0.047,-0.620,-0.821,-116.12,3.31,0.08,-1.83,41.88,1.25,-177.00,-37.39,-127.94,0.299,-0.855,-0.408,0.118
1012449.000000,0.046,-0.605,-0.862,-108.13,6.62,-0.45,-2.29,41.83,2.04,-177.02,-36.24,-128.02,0.290,-0.858,-0.409,0.114
1012459.000000,0.057,-0.585,-0.866,-92.88,14.62,0.31,-2.00,42.17,2.42,-176.99,-35.15,-128.08,0.282,-0.860,-0.410,0.110
1012469.000000,0.057,-0.543,-0.846,-80.31,22.38,3.16,-3.25,41.64,3.00,-176.90,-34.20,-128.15,0.276,-0.863,-0.411,0.105
1012479.000000,0.053,-0.522,-0.827,-77.48,21.38,6.07,-3.39,41.64,3.42,-176.73,-33.39,-128.24,0.270,-0.865,-0.411,0.101
1012489.000000,0.044,-0.520,-0.818,-78.14,14.95,7.25,-3.71,41.48,3.29,-176.58,-32.62,-128.36,0.265,-0.867,-0.410,0.096
1012499.000000,0.041,-0.486,-0.844,-80.92,6.06,5.54,-4.13,41.75,4.25,-176.50,-31.84,-128.50,0.260,-0.869,-0.410,0.093
1012509.000000,0.033,-0.447,-0.875,-82.19,-1.00,3.55,-4.21,41.93,4.38,-176.49,-31.04,-128.62,0.254,-0.871,-0.410,0.089
1012519.000000,0.033,-0.429,-0.927,-78.91,-4.94,1.50,-4.13,43.13,5.08,-176.55,-30.23,-128.73,0.247,-0.873,-0.410,0.087
1012529.000000,0.056,-0.429,-0.967,-70.59,-7.72,0.84,-5.04,43.17,5.71,-176.63,-29.43,-128.80,0.241,-0.875,-0.411,0.084
1012539.000000,0.058,-0.452,-0.972,-59.33,-9.73,0.81,-4.54,43.43,5.38,-176.73,-28.70,-128.86,0.235,-0.877,-0.412,0.082
1012549.000000,0.056,-0.441,-0.949,-53.00,-6.46,4.42,-4.58,43.67,6.00,-176.85,-28.09,-128.91,0.230,-0.878,-0.412,0.081
1012559.000000,0.042,-0.422,-0.945,-53.11,-7.05,8.84,-4.81,43.63,6.08,-176.96,-27.55,-128.99,0.226,-0.879,-0.412,0.079
1012569.000000,0.023,-0.405,-0.960,-53.42,-11.87,10.86,-5.00,42.98,6.25,-177.08,-27.02,-129.11,0.222,-0.880,-0.412,0.078
1012579.000000,0.009,-0.394,-0.969,-47.99,-13.75,10.16,-5.46,43.21,6.50,-177.26,-26.49,-129.26,0.217,-0.882,-0.412,0.077
1012589.000000,0.004,-0.395,-0.973,-38.77,-10.60,8.08,-5.35,43.13,6.79,-177.46,-26.00,-129.40,0.212,-0.883,-0.412,0.077
1012599.000000,0.007,-0.407,-0.944,-27.74,-7.63,5.04,-5.31,43.43,6.71,-177.63,-25.59,-129.51,0.209,-0.884,-0.412,0.076
1012609.000000,0.021,-0.408,-0.912,-21.07,0.73,3.64,-5.17,43.35,6.75,-177.75,-25.29,-129.59,0.206,-0.885,-0.412,0.076
1012619.000000,0.029,-0.430,-0.927,-21.30,4.22,2.89,-5.17,43.35,6.75,-177.78,-25.07,-129.64,0.204,-0.885,-0.411,0.075
1012629.000000,0.027,-0.429,-0.960,-21.52,-1.21,1.23,-5.58,44.04,7.29,-177.76,-24.86,-129.69,0.203,-0.886,-0.411,0.074
1012639.000000,0.027,-0.422,-0.998,-16.98,-4.88,0.67,-5.54,44.13,7.33,-177.78,-24.64,-129.71,0.201,-0.886,-0.411,0.074
1012649.000000,0.024,-0.413,-1.004,-8.76,-5.22,0.46,-5.46,44.63,7.54,-177.83,-24.46,-129.73,0.200,-0.886,-0.411,0.073
1012659.000000,0.020,-0.394,-1.015,0.48,-0.58,1.13,-5.63,44.31,7.21,-177.89,-24.36,-129.74,0.199,-0.886,-0.412,0.073
1012669.000000,0.016,-0.399,-1.037,10.96,0.06,0.97,-5.63,44.31,7.21,-177.91,-24.35,-129.75,0.198,-0.887,-0.411,0.073
1012679.000000,0.014,-0.402,-1.015,23.48,-2.42,0.53,-5.73,43.71,7.83,-177.91,-24.45,-129.76,0.199,-0.886,-0.411,0.074
1012689.000000,0.019,-0.400,-0.978,34.01,-0.70,1.77,-5.35,43.81,7.50,-177.93,-24.66,-129.76,0.201,-0.886,-0.411,0.075
1012699.000000,0.011,-0.422,-0.973,38.77,-1.91,2.04,-5.27,43.71,7.04,-177.95,-24.99,-129.76,0.203,-0.886,-0.411,0.076
1012709.000000,0.009,-0.425,-0.974,41.72,-8.91,-1.45,-5.13,43.71,6.71,-177.97,-25.36,-129.77,0.206,-0.885,-0.410,0.077
1012719.000000,0.009,-0.421,-0.976,45.65,-12.11,-4.87,-5.13,43.71,6.71,-178.04,-25.77,-129.74,0.209,-0.884,-0.410,0.080
1012729.000000,0.021,-0.415,-0.984,51.21,-8.57,-6.78,-4.08,43.52,5.92,-178.13,-26.21,-129.68,0.212,-0.883,-0.411,0.082
1012739.000000,0.048,-0.421,-1.011,60.79,-6.52,-7.50,-3.63,43.67,5.00,-178.19,-26.71,-129.59,0.215,-0.882,-0.411,0.084
1012749.000000,0.028,-0.439,-1.020,74.16,-9.74,-4.45,-3.89,43.21,5.00,-178.21,-27.29,-129.49,0.220,-0.880,-0.411,0.087
1012759.000000,0.000,-0.427,-1.017,88.55,-15.90,-1.82,-3.63,43.25,4.50,-178.26,-27.99,-129.40,0.225,-0.879,-0.411,0.090
1012769.000000,-0.014,-0.429,-1.017,101.07,-19.48,-1.77,-3.63,43.25,4.50,-178.39,-28.86,-129.35,0.231,-0.877,-0.411,0.094
1012779.000000,-0.017,-0.443,-1.011,112.15,-18.72,-3.02,-3.85,43.39,3.50,-178.55,-29.85,-129.30,0.238,-0.875,-0.411,0.099
1012789.000000,0.028,-0.482,-1.016,123.76,-22.22,-5.84,-3.48,43.21,3.21,-178.71,-30.96,-129.24,0.246,-0.872,-0.410,0.105
1012799.000000,0.055,-0.521,-1.003,134.85,-28.17,-5.40,-3.39,43.39,2.00,-178.88,-32.18,-129.14,0.254,-0.869,-0.410,0.111
1012809.000000,0.052,-0.563,-0.952,146.11,-28.41,0.99,-3.06,42.93,1.21,-179.10,-33.52,-129.05,0.264,-0.865,-0.410,0.117
1012819.000000,0.035,-0.582,-0.879,156.66,-26.57,8.66,-3.06,42.93,1.21,-179.37,-34.96,-129.03,0.273,-0.862,-0.409,0.125
1012829.000000,0.014,-0.606,-0.804,163.69,-25.75,14.89,-1.64,42.79,-0.46,-179.69,-36.52,-129.11,0.284,-0.858,-0.407,0.132
1012839.000000,0.002,-0.629,-0.738,165.73,-22.90,19.87,-0.92,42.67,-1.13,179.95,-38.14,-129.28,0.295,-0.854,-0.405,0.140
1012849.000000,-0.012,-0.670,-0.711,164.74,-23.47,20.98,-0.50,42.43,-1.88,179.56,-39.80,-129.54,0.306,-0.850,-0.402,0.148
1012859.000000,0.001,-0.725,-0.740,160.88,-29.54,17.57,-0.04,41.60,-3.13,179.13,-41.44,-129.84,0.317,-0.846,-0.399,0.156
1012869.000000,-0.004,-0.738,-0.779,158.16,-35.53,13.86,-0.04,41.60,-3.13,178.65,-43.05,-130.12,0.328,-0.842,-0.396,0.165
1012879.000000,-0.022,-0.735,-0.796,160.79,-38.31,10.33,0.31,40.79,-5.46,178.12,-44.64,-130.38,0.338,-0.837,-0.394,0.173
1012889.000000,-0.036,-0.726,-0.771,168.57,-35.27,8.32,0.50,40.46,-6.29,177.57,-46.23,-130.62,0.348,-0.832,-0.392,0.182
1012899.000000,-0.039,-0.720,-0.711,177.38,-31.06,8.21,1.04,40.14,-7.46,177.04,-47.90,-130.86,0.359,-0.827,-0.389,0.190
1012909.000000,-0.045,-0.716,-0.627,182.36,-29.80,7.95,0.85,39.64,-8.54,176.51,-49.65,-131.14,0.371,-0.821,-0.387,0.199
1012919.000000,-0.053,-0.736,-0.571,182.28,-26.50,7.80,0.85,39.64,-8.54,175.97,-51.45,-131.45,0.382,-0.814,-0.384,0.207
1012929.000000,-0.060,-0.741,-0.507,179.66,-19.41,5.42,1.92,39.18,-10.29,175.43,-53.26,-131.80,0.394,-0.808,-0.381,0.215
1012939.000000,-0.058,-0.743,-0.465,176.39,-14.00,1.28,1.73,38.92,-11.58,174.93,-55.05,-132.16,0.406,-0.802,-0.378,0.223
1012949.000000,-0.058,-0.752,-0.455,171.92,-17.83,-4.65,2.56,38.27,-12.04,174.52,-56.80,-132.48,0.418,-0.795,-0.375,0.230
1012959.000000,-0.071,-0.767,-0.450,167.66,-24.24,-10.84,2.56,38.00,-12.88,174.14,-58.53,-132.73,0.429,-0.788,-0.372,0.237
1012969.000000,-0.082,-0.781,-0.438,164.72,-22.52,-16.07,2.56,38.00,-12.88,173.77,-60.21,-132.88,0.440,-0.781,-0.370,0.243
1012979.000000,-0.058,-0.793,-0.409,164.53,-12.91,-19.56,2.52,37.43,-14.21,173.49,-61.87,-132.94,0.451,-0.774,-0.369,0.250
1012989.000000,-0.033,-0.814,-0.391,167.28,-1.70,-19.10,2.83,37.43,-14.21,173.35,-63.52,-132.94,0.462,-0.766,-0.367,0.255
1012999.000000,-0.016,-0.846,-0.392,170.99,2.17,-14.68,2.83,37.43,-14.21,173.31,-65.20,-132.94,0.473,-0.759,-0.365,0.260
1013009.000000,-0.024,-0.859,-0.374,175.85,-5.96,-9.39,2.83,37.43,-14.21,173.22,-66.91,-133.06,0.485,-0.751,-0.362,0.264
1013019.000000,-0.038,-0.885,-0.328,181.75,-19.59,-4.83,2.83,37.43,-14.21,172.91,-68.65,-133.35,0.497,-0.743,-0.358,0.270
1013029.000000,-0.044,-0.932,-0.254,186.94,-23.37,-1.51,3.17,35.25,-18.33,172.26,-70.45,-133.85,0.508,-0.735,-0.355,0.276
1013039.000000,-0.029,-0.934,-0.175,184.33,-15.93,1.60,3.17,35.17,-19.04,171.30,-72.29,-134.63,0.519,-0.726,-0.352,0.283
1013049.000000,-0.037,-0.919,-0.119,176.49,-22.92,0.61,2.83,34.29,-20.13,170.09,-74.12,-135.71,0.530,-0.717,-0.348,0.290
1013059.000000,-0.035,-0.916,-0.106,165.18,-25.80,1.04,3.63,33.98,-20.79,168.61,-75.87,-137.01,0.541,-0.708,-0.344,0.297
1013069.000000,-0.035,-0.964,-0.188,154.45,-23.03,0.86,3.17,33.14,-21.42,166.81,-77.51,-138.60,0.550,-0.699,-0.341,0.304
1013079.000000,-0.057,-0.989,-0.201,151.54,-22.05,-2.54,3.75,32.38,-22.42,164.66,-79.04,-140.55,0.559,-0.691,-0.338,0.310
1013089.000000,-0.072,-0.994,-0.180,155.02,-16.58,-8.96,3.89,31.58,-23.00,162.15,-80.50,-142.88,0.567,-0.683,-0.335,0.315
1013099.000000,-0.071,-0.955,-0.097,159.81,-7.65,-13.73,3.85,30.77,-23.67,159.16,-81.98,-145.73,0.576,-0.674,-0.332,0.321
1013109.000000,-0.059,-0.937,-0.008,162.47,-2.06,-16.78,3.89,30.50,-24.08,155.17,-83.50,-149.66,0.586,-0.666,-0.329,0.325
1013119.000000,-0.024,-0.920,0.062,161.26,2.76,-15.99,3.79,29.71,-24.38,149.03,-85.01,-155.81,0.595,-0.657,-0.325,0.329
1013129.000000,-0.000,-0.924,0.113,154.41,4.66,-8.34,4.17,28.58,-25.25,137.88,-86.41,-167.00,0.605,-0.648,-0.321,0.333
1013139.000000,0.005,-0.926,0.136,144.68,3.93,3.72,4.25,27.56,-25.96,115.48,-87.44,170.52,0.614,-0.639,-0.317,0.336
1013149.000000,-0.012,-0.904,0.133,135.99,0.72,16.03,4.25,27.02,-26.58,81.04,-87.64,136.01,0.623,-0.632,-0.312,0.340
1013159.000000,-0.029,-0.891,0.083,129.25,-7.03,24.24,4.25,26.52,-26.83,54.70,-86.97,109.64,0.630,-0.625,-0.307,0.345
1013169.000000,-0.076,-0.892,0.069,128.03,-15.41,27.05,4.77,25.79,-27.38,41.31,-85.91,96.28,0.636,-0.618,-0.303,0.350
1013179.000000,-0.119,-0.984,0.042,134.05,-10.60,24.30,4.85,24.92,-28.00,34.17,-84.73,89.26,0.642,-0.611,-0.298,0.355
1013189.000000,-0.128,-0.867,0.124,140.53,-0.71,22.23,4.63,24.23,-28.04,29.36,-83.46,84.54,0.648,-0.604,-0.293,0.361
1013199.000000,-0.148,-0.849,0.211,147.51,13.56,22.30,5.08,23.35,-28.79,25.82,-82.12,80.99,0.654,-0.596,-0.288,0.366
1013209.000000,-0.158,-0.864,0.280,150.48,33.67,23.16,5.27,22.50,-28.88,23.26,-80.70,78.28,0.661,-0.589,-0.281,0.370
1013219.000000,-0.144,-0.914,0.306,143.29,49.24,22.15,5.27,21.67,-29.46,21.54,-79.22,76.22,0.669,-0.582,-0.273,0.373
1013229.000000,-0.146,-0.917,0.326,128.39,58.81,16.45,5.50,20.29,-29.63,20.52,-77.77,74.69,0.677,-0.575,-0.264,0.376
1013239.000000,-0.152,-0.883,0.375,115.68,68.16,8.06,6.14,19.71,-29.88,19.84,-76.48,73.41,0.684,-0.570,-0.256,0.377
1013249.000000,-0.117,-0.866,0.419,108.19,67.01,-3.65,6.42,18.79,-29.75,19.30,-75.33,72.16,0.691,-0.565,-0.247,0.377
1013259.000000,-0.075,-0.859,0.420,104.27,40.93,-15.10,6.92,18.33,-29.96,18.61,-74.29,70.74,0.698,-0.560,-0.240,0.376
1013269.000000,-0.070,-0.877,0.405,97.48,11.81,-19.70,7.18,17.96,-30.04,17.48,-73.32,69.11,0.705,-0.555,-0.234,0.375
1013279.000000,-0.067,-0.887,0.373,89.16,-1.44,-17.62,8.02,18.10,-30.25,16.10,-72.41,67.50,0.710,-0.549,-0.231,0.375
1013289.000000,-0.074,-0.895,0.334,82.28,4.33,-10.79,8.25,17.38,-29.92,14.79,-71.55,66.13,0.715,-0.543,-0.229,0.376
1013299.000000,-0.086,-0.883,0.333,82.41,14.90,-4.21,8.02,17.10,-29.96,13.86,-70.74,65.11,0.720,-0.537,-0.226,0.377
1013309.000000,-0.080,-0.868,0.341,92.62,20.23,-0.98,7.75,16.92,-30.38,13.31,-69.94,64.39,0.724,-0.532,-0.223,0.377
1013319.000000,-0.084,-0.910,0.367,107.24,26.12,2.50,7.83,16.42,-30.46,12.92,-69.05,63.76,0.729,-0.527,-0.219,0.378
1013329.000000,-0.086,-0.935,0.440,124.42,36.10,5.71,8.67,15.85,-30.29,12.64,-68.01,63.18,0.734,-0.521,-0.213,0.379
1013339.000000,-0.102,-0.905,0.532,136.66,44.63,8.09,8.85,15.23,-30.13,12.47,-66.81,62.63,0.740,-0.515,-0.207,0.380
1013349.000000,-0.127,-0.876,0.607,140.55,52.33,11.52,9.35,14.08,-30.17,12.42,-65.46,62.10,0.747,-0.507,-0.199,0.381
1013359.000000,-0.152,-0.872,0.662,133.16,51.79,13.39,9.67,13.06,-30.25,12.52,-64.06,61.64,0.753,-0.500,-0.191,0.382
1013369.000000,-0.178,-0.911,0.717,107.90,36.46,6.93,10.23,12.56,-30.33,12.71,-62.71,61.27,0.760,-0.493,-0.182,0.383
1013379.000000,-0.167,-0.841,0.673,71.51,17.73,-8.31,10.42,11.92,-30.38,12.78,-61.61,60.91,0.765,-0.487,-0.176,0.384
1013389.000000,-0.147,-0.853,0.583,51.97,3.19,-20.43,10.23,11.60,-30.54,12.56,-60.88,60.44,0.768,-0.483,-0.172,0.383
1013399.000000,-0.106,-0.835,0.477,47.71,4.44,-25.51,10.50,11.56,-30.17,12.08,-60.39,59.82,0.771,-0.479,-0.171,0.383
1013409.000000,-0.096,-0.795,0.428,59.76,18.95,-18.45,10.54,11.06,-30.04,11.52,-59.96,59.14,0.774,-0.475,-0.170,0.382
1013419.000000,-0.061,-0.840,0.429,77.31,25.37,-8.81,10.73,10.83,-30.38,11.17,-59.43,58.53,0.778,-0.472,-0.167,0.380
1013429.000000,-0.051,-0.904,0.508,96.90,22.43,-2.93,10.13,10.88,-30.33,11.02,-58.72,58.06,0.781,-0.467,-0.164,0.380
1013439.000000,-0.061,-0.911,0.617,118.50,18.46,3.65,10.31,10.50,-30.38,10.90,-57.80,57.66,0.786,-0.462,-0.159,0.380
1013449.000000,-0.092,-0.855,0.709,132.38,15.62,9.86,10.13,9.38,-29.92,10.79,-56.66,57.30,0.790,-0.454,-0.154,0.381
1013459.000000,-0.089,-0.799,0.768,134.09,8.91,15.06,10.35,9.00,-29.92,10.72,-55.35,57.02,0.795,-0.446,-0.148,0.383
1013469.000000,-0.087,-0.764,0.775,128.75,-11.55,19.45,10.58,8.23,-29.71,10.67,-54.01,56.84,0.800,-0.437,-0.142,0.385
1013479.000000,-0.114,-0.760,0.732,117.51,-27.82,24.97,10.35,6.85,-30.25,10.51,-52.70,56.75,0.804,-0.428,-0.138,0.388
1013489.000000,-0.152,-0.751,0.684,107.68,-29.69,28.02,10.42,6.02,-30.33,10.28,-51.48,56.79,0.808,-0.419,-0.135,0.392
1013499.000000,-0.164,-0.721,0.667,99.91,-21.60,24.79,10.18,5.43,-30.71,10.08,-50.35,56.91,0.810,-0.410,-0.132,0.397
1013509.000000,-0.153,-0.735,0.687,91.43,-9.67,17.43,10.18,4.71,-30.67,9.94,-49.30,57.03,0.813,-0.403,-0.129,0.401
1013519.000000,-0.136,-0.720,0.725,84.74,4.34,10.06,10.35,4.25,-30.67,9.86,-48.36,57.07,0.815,-0.396,-0.126,0.403
1013529.000000,-0.112,-0.671,0.732,80.56,15.50,8.82,10.54,3.64,-30.63,9.85,-47.49,57.02,0.818,-0.390,-0.122,0.405
1013539.000000,-0.114,-0.659,0.735,77.75,22.07,14.52,10.68,3.64,-30.58,9.94,-46.67,56.94,0.820,-0.385,-0.118,0.406
1013549.000000,-0.138,-0.646,0.736,81.66,21.51,24.29,10.50,3.06,-30.54,10.14,-45.87,56.94,0.823,-0.380,-0.113,0.407
1013559.000000,-0.151,-0.684,0.744,85.79,8.46,29.56,11.10,2.54,-30.29,10.44,-45.02,57.05,0.825,-0.375,-0.108,0.409
1013569.000000,-0.165,-0.672,0.773,87.67,-9.45,27.69,10.88,2.18,-30.25,10.67,-44.11,57.23,0.827,-0.369,-0.103,0.411
1013579.000000,-0.161,-0.636,0.781,87.61,-27.44,21.04,11.00,1.50,-30.08,10.71,-43.19,57.39,0.829,-0.363,-0.100,0.414
1013589.000000,-0.133,-0.669,0.778,84.67,-38.12,14.20,10.88,0.63,-30.13,10.51,-42.28,57.47,0.830,-0.356,-0.098,0.418
1013599.000000,-0.119,-0.694,0.792,83.16,-36.57,10.57,10.64,0.63,-30.50,10.14,-41.41,57.46,0.832,-0.349,-0.097,0.421
1013609.000000,-0.098,-0.663,0.826,84.41,-30.57,11.20,10.31,-0.17,-30.29,9.74,-40.56,57.42,0.834,-0.341,-0.096,0.423
1013619.000000,-0.112,-0.681,0.867,83.17,-26.06,14.72,10.00,-0.89,-30.08,9.40,-39.72,57.38,0.836,-0.334,-0.095,0.426
1013629.000000,-0.120,-0.655,0.902,80.05,-22.71,17.11,9.35,-1.18,-30.13,9.13,-38.87,57.38,0.837,-0.327,-0.093,0.428
1013639.000000,-0.135,-0.605,0.924,74.75,-23.40,15.68,9.35,-1.73,-29.75,8.93,-38.04,57.43,0.839,-0.320,-0.092,0.431
1013649.000000,-0.155,-0.585,0.944,65.91,-25.45,12.32,9.21,-2.04,-29.83,8.73,-37.27,57.48,0.840,-0.314,-0.090,0.433
1013659.000000,-0.165,-0.577,0.944,54.37,-18.58,8.83,8.89,-2.31,-30.17,8.50,-36.59,57.51,0.841,-0.308,-0.089,0.435
1013669.000000,-0.168,-0.567,0.941,40.52,-4.08,4.86,9.04,-2.31,-30.04,8.31,-36.02,57.53,0.842,-0.303,-0.088,0.437
1013679.000000,-0.160,-0.566,0.934,26.15,10.08,1.54,8.75,-3.96,-30.08,8.24,-35.60,57.52,0.843,-0.300,-0.087,0.438
1013689.000000,-0.161,-0.572,0.927,13.97,16.09,-2.03,8.81,-4.06,-29.75,8.31,-35.32,57.49,0.844,-0.298,-0.085,0.438
1013699.000000,-0.146,-0.605,0.940,4.64,14.97,-7.48,8.93,-3.92,-29.54,8.44,-35.17,57.44,0.844,-0.298,-0.083,0.437
1013709.000000,-0.126,-0.585,0.978,-3.95,9.94,-12.76,8.85,-4.25,-29.50,8.54,-35.12,57.35,0.845,-0.298,-0.082,0.437
1013719.000000,-0.111,-0.603,0.996,-10.50,6.62,-12.55,8.98,-4.10,-29.63,8.56,-35.17,57.21,0.845,-0.299,-0.082,0.435
1013729.000000,-0.133,-0.590,0.995,-19.70,8.18,-6.69,9.04,-3.29,-29.92,8.55,-35.28,57.07,0.846,-0.299,-0.082,0.434
1013739.000000,-0.162,-0.561,0.983,-27.99,6.66,-1.68,9.27,-2.73,-30.21,8.60,-35.48,57.02,0.846,-0.301,-0.082,0.433
1013749.000000,-0.171,-0.570,0.958,-31.35,-4.03,-3.06,9.27,-2.73,-30.33,8.68,-35.75,57.04,0.845,-0.303,-0.083,0.433
1013759.000000,-0.164,-0.571,0.922,-35.68,-14.16,-7.26,9.50,-2.92,-30.25,8.67,-36.06,57.06,0.844,-0.305,-0.084,0.432
1013769.000000,-0.140,-0.593,0.860,-41.03,-18.25,-10.87,8.93,-2.38,-29.83,8.53,-36.41,57.05,0.843,-0.307,-0.087,0.432
1013779.000000,-0.139,-0.592,0.804,-45.51,-14.65,-14.60,9.17,-2.27,-30.04,8.33,-36.81,57.00,0.843,-0.310,-0.090,0.431
1013789.000000,-0.132,-0.592,0.741,-48.88,-2.98,-18.80,9.17,-2.00,-30.42,8.12,-37.27,56.90,0.842,-0.312,-0.093,0.430
1013799.000000,-0.115,-0.611,0.698,-48.67,8.78,-23.17,9.21,-1.46,-30.17,7.99,-37.77,56.76,0.841,-0.315,-0.095,0.429
1013809.000000,-0.084,-0.642,0.697,-40.51,13.81,-27.11,9.21,-0.96,-30.46,7.94,-38.29,56.56,0.841,-0.319,-0.097,0.427
1013819.000000,-0.082,-0.660,0.722,-30.32,14.41,-27.37,9.17,-0.81,-30.46,7.91,-38.74,56.30,0.841,-0.322,-0.099,0.424
1013829.000000,-0.085,-0.676,0.741,-26.59,14.81,-23.18,8.85,-0.63,-30.33,7.87,-39.09,56.01,0.841,-0.325,-0.100,0.421
1013839.000000,-0.088,-0.682,0.760,-28.43,14.32,-18.05,9.04,-0.13,-30.25,7.85,-39.39,55.75,0.841,-0.327,-0.100,0.419
1013849.000000,-0.089,-0.677,0.784,-27.99,4.99,-13.99,9.17,0.04,-30.42,7.87,-39.70,55.56,0.841,-0.330,-0.101,0.417
1013859.000000,-0.099,-0.675,0.796,-25.25,-9.31,-11.87,9.31,0.27,-30.38,7.85,-40.01,55.42,0.841,-0.332,-0.102,0.415
1013869.000000,-0.099,-0.671,0.811,-22.65,-18.48,-10.42,9.08,-0.08,-30.63,7.70,-40.28,55.31,0.840,-0.334,-0.104,0.414
1013879.000000,-0.102,-0.660,0.813,-23.66,-23.13,-9.85,9.35,0.67,-30.33,7.46,-40.52,55.21,0.840,-0.334,-0.106,0.414
1013889.000000,-0.111,-0.659,0.817,-28.34,-27.10,-9.69,9.27,1.23,-30.88,7.18,-40.76,55.12,0.840,-0.335,-0.109,0.414
1013899.000000,-0.108,-0.667,0.805,-32.63,-31.11,-12.19,9.17,1.13,-30.75,6.86,-41.04,55.04,0.839,-0.336,-0.112,0.413
1013909.000000,-0.097,-0.689,0.784,-37.28,-29.98,-16.23,8.85,1.13,-30.79,6.48,-41.36,54.93,0.838,-0.337,-0.116,0.413
1013919.000000,-0.081,-0.686,0.778,-42.39,-23.96,-19.28,8.71,1.27,-31.67,6.09,-41.73,54.78,0.837,-0.339,-0.120,0.413
1013929.000000,-0.070,-0.651,0.774,-47.61,-15.75,-16.83,8.43,1.58,-30.96,5.72,-42.16,54.59,0.836,-0.341,-0.123,0.411
1013939.000000,-0.077,-0.646,0.766,-51.88,-10.20,-11.12,8.02,1.96,-31.08,5.43,-42.64,54.42,0.835,-0.343,-0.127,0.410
1013949.000000,-0.092,-0.673,0.766,-53.11,-5.27,-5.95,8.52,2.77,-31.33,5.26,-43.15,54.33,0.834,-0.346,-0.130,0.409
1013959.000000,-0.092,-0.659,0.773,-51.95,-2.47,-6.36,8.21,2.83,-31.13,5.19,-43.67,54.30,0.833,-0.350,-0.132,0.408
1013969.000000,-0.088,-0.676,0.770,-51.34,-3.43,-9.43,8.39,3.10,-31.00,5.15,-44.19,54.29,0.831,-0.353,-0.134,0.407
1013979.000000,-0.083,-0.701,0.760,-54.05,-6.46,-12.83,8.25,3.29,-31.46,5.08,-44.70,54.23,0.830,-0.357,-0.137,0.406
1013989.000000,-0.060,-0.734,0.739,-56.66,-7.28,-16.36,8.02,3.52,-31.29,4.95,-45.22,54.13,0.829,-0.360,-0.139,0.405
1013999.000000,-0.047,-0.747,0.732,-58.83,-3.80,-17.77,7.71,3.52,-31.33,4.77,-45.78,53.97,0.828,-0.364,-0.142,0.403
1014009.000000,-0.036,-0.738,0.720,-59.95,1.83,-14.31,7.52,3.75,-31.58,4.59,-46.38,53.79,0.826,-0.368,-0.145,0.401
1014019.000000,-0.058,-0.756,0.703,-61.23,5.80,-9.10,7.79,4.64,-31.46,4.50,-46.98,53.64,0.825,-0.372,-0.148,0.400
1014029.000000,-0.062,-0.754,0.698,-62.38,5.80,-6.99,8.43,5.02,-31.67,4.49,-47.59,53.56,0.823,-0.376,-0.150,0.398
1014039.000000,-0.054,-0.739,0.684,-61.63,0.97,-6.94,8.43,4.98,-31.46,4.52,-48.21,53.53,0.822,-0.381,-0.152,0.396
1014049.000000,-0.050,-0.764,0.682,-59.73,-4.26,-6.80,8.06,5.25,-31.79,4.52,-48.82,53.50,0.820,-0.385,-0.154,0.395
1014059.000000,-0.046,-0.759,0.667,-60.02,-10.93,-6.91,8.75,5.56,-31.38,4.46,-49.42,53.47,0.818,-0.389,-0.156,0.394
1014069.000000,-0.060,-0.777,0.654,-61.56,-14.68,-6.70,8.56,6.35,-31.63,4.33,-50.02,53.44,0.816,-0.393,-0.159,0.393
1014079.000000,-0.064,-0.785,0.651,-61.35,-11.46,-6.26,8.71,6.67,-31.79,4.16,-50.63,53.40,0.814,-0.396,-0.163,0.392
1014089.000000,-0.059,-0.778,0.621,-62.01,-5.48,-7.21,8.43,6.63,-31.46,4.02,-51.24,53.37,0.812,-0.400,-0.166,0.391
1014099.000000,-0.067,-0.796,0.574,-66.67,6.13,-9.01,8.39,7.27,-31.54,3.94,-51.85,53.34,0.810,-0.404,-0.168,0.390
1014109.000000,-0.057,-0.811,0.555,-69.61,21.99,-9.83,8.21,7.73,-31.88,3.93,-52.51,53.27,0.808,-0.409,-0.171,0.388
1014119.000000,-0.036,-0.782,0.552,-65.29,29.21,-11.89,8.48,7.63,-31.63,4.08,-53.22,53.20,0.806,-0.415,-0.172,0.386
1014129.000000,-0.024,-0.798,0.550,-57.85,19.94,-11.14,8.48,8.63,-31.29,4.28,-53.89,53.09,0.804,-0.420,-0.173,0.383
1014139.000000,-0.028,-0.815,0.540,-50.68,-3.21,-10.17,8.21,9.14,-31.13,4.40,-54.49,52.97,0.803,-0.425,-0.174,0.381
1014149.000000,-0.036,-0.822,0.536,-43.14,-20.60,-9.02,8.25,9.00,-31.29,4.30,-55.01,52.86,0.801,-0.428,-0.176,0.379
1014159.000000,-0.056,-0.833,0.535,-37.47,-20.73,-7.11,8.21,9.60,-31.13,4.03,-55.46,52.76,0.800,-0.430,-0.179,0.378
1014169.000000,-0.052,-0.842,0.538,-34.70,-10.37,-7.26,8.02,10.04,-31.13,3.75,-55.85,52.67,0.798,-0.432,-0.182,0.378
1014179.000000,-0.030,-0.843,0.548,-35.20,0.57,-9.10,7.75,9.38,-31.42,3.57,-56.21,52.59,0.797,-0.434,-0.184,0.377
1014189.000000,-0.019,-0.851,0.552,-36.24,3.18,-9.06,7.88,9.08,-31.67,3.47,-56.57,52.47,0.796,-0.437,-0.185,0.376
1014199.000000,-0.018,-0.851,0.543,-35.84,-0.63,-7.09,7.52,9.23,-31.29,3.39,-56.93,52.35,0.795,-0.439,-0.187,0.375
1014209.000000,-0.032,-0.847,0.528,-34.32,-6.59,-4.87,7.83,9.54,-31.38,3.31,-57.30,52.25,0.794,-0.441,-0.188,0.374
1014219.000000,-0.039,-0.851,0.530,-30.75,-7.52,-4.13,7.71,9.88,-31.21,3.19,-57.64,52.19,0.792,-0.444,-0.190,0.373
1014229.000000,-0.032,-0.856,0.531,-26.67,-3.30,-3.17,7.83,10.56,-31.42,3.08,-57.96,52.14,0.791,-0.445,-0.192,0.373
1014239.000000,-0.025,-0.855,0.534,-24.94,-3.20,-1.92,8.06,10.73,-31.38,3.02,-58.24,52.11,0.790,-0.447,-0.193,0.372
1014249.000000,-0.035,-0.866,0.530,-25.59,-10.85,-2.70,8.06,10.73,-31.58,2.98,-58.49,52.10,0.789,-0.449,-0.194,0.372
1014259.000000,-0.036,-0.861,0.527,-25.44,-17.87,-5.10,7.42,10.68,-31.29,2.86,-58.74,52.08,0.788,-0.450,-0.196,0.371
1014269.000000,-0.030,-0.870,0.514,-24.96,-16.09,-6.36,7.42,10.88,-31.63,2.64,-58.99,52.01,0.787,-0.451,-0.198,0.371
1014279.000000,-0.029,-0.883,0.518,-25.82,-7.44,-6.45,8.75,12.29,-31.50,2.39,-59.24,51.92,0.786,-0.452,-0.200,0.371
1014289.000000,-0.029,-0.864,0.522,-27.22,1.42,-6.16,8.71,12.10,-31.46,2.22,-59.50,51.82,0.785,-0.454,-0.202,0.371
1014299.000000,-0.035,-0.856,0.521,-28.77,6.15,-5.61,9.08,12.83,-31.38,2.14,-59.77,51.72,0.784,-0.455,-0.203,0.370
1014309.000000,-0.033,-0.857,0.510,-29.57,6.05,-6.48,8.93,12.60,-31.33,2.13,-60.06,51.64,0.783,-0.457,-0.203,0.369
1014319.000000,-0.016,-0.885,0.515,-29.99,0.60,-8.50,8.67,12.56,-31.33,2.11,-60.34,51.54,0.782,-0.459,-0.204,0.368
1014329.000000,-0.009,-0.887,0.528,-30.34,-6.66,-9.57,7.33,12.14,-31.29,2.00,-60.64,51.40,0.782,-0.461,-0.205,0.366
1014339.000000,-0.012,-0.877,0.539,-31.18,-11.94,-7.82,7.29,12.43,-31.75,1.80,-60.94,51.23,0.781,-0.463,-0.207,0.365
1014349.000000,-0.024,-0.913,0.530,-33.46,-10.66,-5.01,7.14,12.60,-31.42,1.55,-61.24,51.08,0.779,-0.465,-0.209,0.365
1014359.000000,-0.023,-0.926,0.532,-37.49,-4.92,-4.72,7.02,12.89,-31.38,1.36,-61.57,50.99,0.778,-0.466,-0.211,0.364
1014369.000000,-0.013,-0.891,0.531,-42.85,-3.87,-5.29,7.10,13.02,-31.29,1.23,-61.93,50.91,0.777,-0.468,-0.213,0.364
1014379.000000,-0.012,-0.898,0.527,-48.12,-12.58,-5.73,7.71,13.98,-31.38,1.12,-62.35,50.82,0.775,-0.471,-0.215,0.363
1014389.000000,-0.008,-0.886,0.505,-48.94,-22.63,-6.17,7.48,14.02,-31.46,0.91,-62.82,50.72,0.773,-0.474,-0.217,0.362
1014399.000000,-0.011,-0.888,0.490,-48.36,-29.65,-5.29,7.48,14.67,-31.54,0.59,-63.29,50.60,0.771,-0.476,-0.220,0.361
1014409.000000,-0.014,-0.890,0.463,-47.13,-30.75,-4.62,7.14,14.58,-31.29,0.21,-63.77,50.49,0.768,-0.478,-0.224,0.361
1014419.000000,-0.013,-0.907,0.442,-45.96,-24.88,-5.14,7.02,15.08,-31.63,-0.19,-64.23,50.38,0.766,-0.480,-0.228,0.361
1014429.000000,-0.006,-0.925,0.433,-45.83,-14.68,-6.43,6.38,15.63,-31.58,-0.56,-64.69,50.27,0.764,-0.483,-0.231,0.361
1014439.000000,-0.004,-0.930,0.453,-46.85,-4.15,-6.79,6.64,16.00,-31.00,-0.85,-65.14,50.11,0.762,-0.485,-0.234,0.361
1014449.000000,-0.011,-0.918,0.473,-50.80,-3.72,-7.11,5.92,16.73,-31.17,-1.07,-65.61,49.94,0.760,-0.488,-0.236,0.359
1014459.000000,-0.002,-0.918,0.466,-57.16,-14.15,-9.66,6.10,16.68,-30.71,-1.27,-66.10,49.75,0.758,-0.491,-0.238,0.358
1014469.000000,0.004,-0.909,0.447,-63.31,-23.77,-12.32,5.81,17.00,-30.83,-1.63,-66.65,49.49,0.756,-0.494,-0.241,0.357
1014479.000000,0.001,-0.905,0.417,-67.35,-23.38,-12.00,6.92,17.18,-31.13,-2.18,-67.25,49.14,0.753,-0.497,-0.245,0.356
1014489.000000,-0.003,-0.916,0.386,-69.12,-12.22,-11.51,6.42,17.56,-31.13,-2.77,-67.90,48.76,0.750,-0.500,-0.249,0.355
1014499.000000,0.015,-0.922,0.371,-68.16,2.55,-12.41,6.46,17.56,-31.42,-3.28,-68.57,48.36,0.747,-0.504,-0.252,0.353
1014509.000000,0.055,-0.951,0.353,-67.27,7.48,-13.57,6.14,17.92,-30.79,-3.69,-69.24,47.91,0.744,-0.508,-0.255,0.351
1014519.000000,0.068,-0.978,0.315,-67.44,-9.51,-12.76,6.23,18.88,-30.88,-4.09,-69.90,47.41,0.742,-0.512,-0.257,0.348
1014529.000000,0.068,-0.949,0.288,-63.64,-45.83,-11.02,6.23,18.88,-30.88,-4.67,-70.56,46.86,0.739,-0.516,-0.260,0.346
1014539.000000,0.068,-0.953,0.274,-54.48,-80.30,-8.04,5.23,19.56,-30.67,-5.59,-71.19,46.33,0.736,-0.519,-0.265,0.346
1014549.000000,0.071,-0.996,0.276,-40.49,-94.41,-3.72,4.71,19.56,-30.88,-6.80,-71.74,45.86,0.731,-0.520,-0.272,0.347
1014560.000000,0.069,-0.990,0.290,-28.93,-82.70,2.38,4.08,19.98,-30.96,-8.05,-72.16,45.53,0.727,-0.520,-0.280,0.350
1014570.000000,0.056,-1.004,0.316,-23.91,-55.80,9.78,3.75,19.83,-30.83,-9.00,-72.47,45.42,0.724,-0.519,-0.286,0.353
1014580.000000,0.034,-1.000,0.322,-26.23,-36.77,10.72,3.75,19.83,-30.83,-9.45,-72.73,45.57,0.721,-0.519,-0.290,0.356
1014590.000000,0.038,-0.977,0.309,-33.48,-42.41,4.57,2.79,20.29,-30.75,-9.64,-73.00,45.78,0.719,-0.520,-0.293,0.358
1014600.000000,0.040,-0.967,0.286,-41.08,-64.61,-4.37,2.38,20.33,-31.00,-10.04,-73.33,45.78,0.716,-0.521,-0.296,0.359
1014610.000000,0.038,-0.948,0.262,-46.40,-82.43,-11.30,1.88,20.71,-31.17,-11.01,-73.71,45.42,0.713,-0.521,-0.301,0.361
1014620.000000,0.052,-0.948,0.231,-49.67,-82.24,-13.89,1.60,20.85,-31.25,-12.47,-74.14,44.73,0.709,-0.521,-0.308,0.362
1014630.000000,0.067,-0.960,0.212,-51.61,-65.51,-11.75,1.60,20.85,-31.25,-14.17,-74.58,43.82,0.705,-0.521,-0.315,0.364
1014640.000000,0.083,-0.962,0.192,-52.34,-48.54,-6.75,0.81,21.67,-31.33,-15.77,-75.05,42.87,0.701,-0.522,-0.322,0.365
1014650.000000,0.065,-0.967,0.191,-52.15,-45.66,-3.63,0.58,22.27,-31.29,-17.11,-75.53,42.01,0.697,-0.523,-0.327,0.365
1014660.000000,0.060,-0.966,0.191,-49.33,-53.70,-4.94,0.17,22.50,-31.54,-18.35,-76.02,41.20,0.693,-0.525,-0.332,0.366
1014670.000000,0.055,-0.991,0.194,-44.95,-58.21,-9.51,-0.08,23.00,-31.21,-19.72,-76.49,40.33,0.690,-0.526,-0.337,0.366
1014680.000000,0.065,-1.017,0.191,-40.05,-54.05,-16.18,-0.08,23.00,-31.21,-21.32,-76.89,39.28,0.686,-0.527,-0.342,0.367
1014690.000000,0.088,-1.032,0.182,-36.99,-48.79,-21.68,-0.77,22.96,-31.46,-23.13,-77.22,37.98,0.683,-0.527,-0.347,0.367
1014700.000000,0.117,-1.024,0.191,-35.85,-51.36,-24.43,-1.14,23.31,-31.42,-25.15,-77.48,36.42,0.681,-0.527,-0.352,0.367
1014710.000000,0.133,-1.002,0.200,-34.02,-63.87,-24.74,-1.60,22.96,-31.29,-27.36,-77.69,34.68,0.678,-0.527,-0.357,0.367
1014720.000000,0.146,-0.980,0.183,-33.12,-80.74,-22.24,-2.14,23.31,-31.42,-29.75,-77.88,32.88,0.675,-0.526,-0.363,0.367
1014730.000000,0.118,-0.983,0.172,-31.61,-90.03,-17.99,-2.14,23.31,-31.42,-32.25,-78.04,31.12,0.672,-0.525,-0.370,0.369
1014740.000000,0.093,-0.980,0.180,-29.77,-85.91,-17.67,-3.79,24.31,-31.50,-34.72,-78.20,29.50,0.668,-0.523,-0.377,0.371
1014750.000000,0.102,-0.973,0.174,-28.44,-74.71,-21.56,-4.43,24.42,-31.54,-37.12,-78.34,27.94,0.665,-0.521,-0.384,0.373
1014760.000000,0.128,-0.987,0.153,-29.36,-69.13,-25.07,-4.58,24.96,-31.54,-39.52,-78.43,26.26,0.661,-0.520,-0.390,0.374
1014770.000000,0.143,-0.989,0.120,-31.34,-73.38,-25.85,-5.81,25.14,-31.17,-42.04,-78.49,24.40,0.659,-0.519,-0.396,0.375
1014780.000000,0.152,-0.982,0.100,-33.30,-77.19,-21.73,-5.81,25.14,-31.17,-44.73,-78.54,22.40,0.655,-0.517,-0.403,0.375
1014790.000000,0.161,-0.982,0.092,-33.52,-74.42,-14.71,-6.04,25.23,-30.88,-47.47,-78.62,20.39,0.652,-0.516,-0.409,0.376
1014800.000000,0.179,-0.987,0.088,-32.31,-71.84,-6.87,-6.92,25.29,-31.04,-50.03,-78.72,18.54,0.648,-0.515,-0.415,0.378
1014810.000000,0.186,-0.996,0.078,-28.28,-76.48,-0.71,-7.42,25.46,-31.00,-52.34,-78.87,16.93,0.644,-0.514,-0.421,0.379
1014820.000000,0.165,-0.997,0.045,-26.60,-87.36,5.62,-7.93,25.56,-31.17,-54.40,-79.03,15.61,0.640,-0.513,-0.426,0.381
1014830.000000,0.150,-1.005,0.030,-27.00,-94.83,12.52,-7.93,25.56,-31.17,-56.32,-79.22,14.52,0.636,-0.512,-0.432,0.384
1014840.000000,0.151,-1.011,0.030,-24.54,-97.34,16.33,-8.75,26.48,-31.21,-58.22,-79.48,13.55,0.630,-0.511,-0.437,0.388
1014850.000000,0.150,-1.022,0.035,-18.03,-100.45,15.22,-9.39,26.64,-31.25,-59.99,-79.75,12.75,0.625,-0.509,-0.443,0.392
1014860.000000,0.142,-1.027,0.065,-8.58,-102.23,9.89,-10.00,26.83,-31.21,-61.56,-79.99,12.17,0.620,-0.508,-0.448,0.397
1014870.000000,0.149,-1.019,0.087,-0.75,-108.91,2.46,-10.81,26.60,-31.17,-62.85,-80.14,11.89,0.615,-0.505,-0.454,0.401
1014880.000000,0.164,-1.005,0.099,1.81,-122.41,-4.28,-10.81,26.60,-31.17,-63.95,-80.18,11.88,0.610,-0.501,-0.459,0.406
1014890.000000,0.164,-1.004,0.102,0.38,-135.85,-7.92,-12.89,26.52,-31.50,-65.14,-80.14,11.89,0.606,-0.497,-0.466,0.412
1014900.000000,0.162,-1.010,0.092,-3.94,-146.17,-8.81,-13.67,26.52,-31.08,-66.59,-80.07,11.78,0.600,-0.492,-0.473,0.417
1014910.000000,0.168,-1.005,0.087,-9.65,-150.51,-8.41,-13.67,26.52,-31.08,-68.36,-80.00,11.46,0.595,-0.486,-0.481,0.423
1014920.000000,0.179,-0.989,0.082,-16.60,-146.46,-5.87,-13.67,26.52,-31.08,-70.46,-79.95,10.85,0.588,-0.481,-0.490,0.428
1014930.000000,0.183,-0.974,0.080,-21.90,-146.74,-1.10,-13.67,26.52,-31.08,-72.83,-79.94,9.93,0.581,-0.476,-0.498,0.433
1014940.000000,0.185,-0.978,0.060,-27.09,-166.94,3.76,-14.96,26.64,-31.17,-75.43,-79.97,8.77,0.574,-0.471,-0.506,0.438
1014950.000000,0.187,-0.980,0.043,-32.21,-191.60,5.66,-14.96,26.64,-31.17,-78.45,-80.06,7.37,0.566,-0.466,-0.515,0.444
1014960.000000,0.196,-0.980,0.048,-30.60,-204.67,5.08,-16.23,26.60,-31.00,-82.04,-80.16,5.64,0.556,-0.460,-0.525,0.450
1014970.000000,0.179,-0.963,0.053,-27.37,-208.39,0.55,-18.17,26.83,-31.00,-85.80,-80.24,3.89,0.545,-0.454,-0.536,0.457
1014980.000000,0.178,-0.975,0.039,-22.40,-210.86,-3.93,-19.63,26.56,-30.29,-89.44,-80.26,2.31,0.534,-0.447,-0.547,0.464
1014990.000000,0.168,-1.013,0.024,-23.17,-204.74,-4.16,-21.60,27.02,-29.88,-92.79,-80.22,1.04,0.523,-0.439,-0.558,0.471
1015000.000000,0.159,-1.018,0.014,-27.10,-197.94,-6.22,-22.98,26.88,-29.75,-96.04,-80.16,-0.18,0.513,-0.431,-0.568,0.478
1015010.000000,0.170,-0.994,0.015,-33.33,-191.73,-7.13,-24.13,26.79,-29.46,-99.44,-80.07,-1.61,0.502,-0.424,-0.578,0.484
1015020.000000,0.176,-0.974,0.014,-40.15,-183.87,-7.68,-25.38,27.17,-29.13,-103.06,-79.94,-3.33,0.491,-0.417,-0.588,0.489
1015030.000000,0.180,-0.948,0.005,-45.90,-184.08,-9.41,-26.52,27.17,-28.46,-106.87,-79.77,-5.33,0.481,-0.410,-0.598,0.493
1015040.000000,0.190,-0.967,-0.024,-50.97,-198.91,-9.22,-26.98,28.21,-27.71,-110.83,-79.53,-7.49,0.470,-0.404,-0.608,0.497
1015050.000000,0.200,-0.983,-0.070,-53.93,-234.77,-7.84,-28.04,28.35,-27.04,-115.03,-79.25,-9.76,0.458,-0.397,-0.618,0.501
1015060.000000,0.187,-0.984,-0.101,-52.40,-276.06,-9.36,-30.06,28.52,-26.54,-119.58,-78.94,-12.04,0.444,-0.388,-0.630,0.506
1015070.000000,0.153,-0.964,-0.114,-48.17,-298.91,-9.62,-30.98,28.43,-25.63,-124.26,-78.58,-14.06,0.428,-0.378,-0.643,0.511
1015080.000000,0.125,-0.967,-0.119,-45.25,-291.23,-7.64,-32.58,28.81,-24.58,-128.83,-78.21,-15.70,0.410,-0.365,-0.656,0.518
1015090.000000,0.133,-0.961,-0.126,-44.43,-257.37,-3.14,-35.42,28.71,-23.46,-133.12,-77.86,-17.10,0.392,-0.353,-0.669,0.524
1015100.000000,0.145,-0.959,-0.140,-43.76,-220.14,3.10,-36.63,29.04,-22.58,-137.06,-77.52,-18.44,0.375,-0.342,-0.680,0.529
1015110.000000,0.150,-0.953,-0.140,-42.16,-206.64,8.16,-37.77,29.31,-21.92,-140.66,-77.21,-19.83,0.360,-0.334,-0.689,0.534
1015120.000000,0.116,-0.983,-0.163,-41.85,-228.17,11.11,-38.64,29.13,-21.04,-144.11,-76.93,-21.23,0.346,-0.326,-0.697,0.537
1015130.000000,0.066,-0.990,-0.176,-46.00,-259.74,13.73,-39.42,29.31,-20.21,-147.70,-76.65,-22.61,0.331,-0.317,-0.705,0.541
1015140.000000,0.038,-0.973,-0.188,-52.63,-274.55,14.57,-40.42,29.77,-18.54,-151.68,-76.33,-24.08,0.313,-0.307,-0.714,0.546
1015150.000000,0.016,-0.951,-0.194,-58.44,-262.01,13.31,-41.21,29.48,-17.88,-155.88,-75.94,-25.59,0.294,-0.296,-0.723,0.550
1015160.000000,0.032,-0.914,-0.195,-62.31,-225.47,11.33,-42.50,30.13,-16.50,-159.89,-75.46,-27.01,0.275,-0.286,-0.732,0.554
1015170.000000,0.029,-0.925,-0.219,-61.96,-193.56,9.45,-43.18,29.89,-15.71,-163.39,-74.92,-28.23,0.258,-0.277,-0.740,0.556
1015180.000000,0.001,-0.945,-0.277,-60.04,-189.16,9.63,-43.68,30.13,-14.21,-166.31,-74.36,-29.21,0.243,-0.269,-0.747,0.557
1015190.000000,-0.041,-0.941,-0.267,-57.71,-192.06,12.09,-44.29,30.31,-12.92,-168.99,-73.79,-30.04,0.229,-0.262,-0.754,0.557
1015200.000000,-0.062,-0.930,-0.260,-54.39,-195.82,15.06,-45.25,30.31,-11.92,-171.65,-73.24,-30.81,0.214,-0.255,-0.760,0.558
1015210.000000,-0.052,-0.928,-0.271,-53.43,-194.66,15.17,-45.29,30.46,-10.63,-174.33,-72.72,-31.57,0.199,-0.247,-0.766,0.559
1015220.000000,-0.007,-0.925,-0.297,-54.04,-178.58,12.37,-45.67,30.68,-9.92,-176.94,-72.20,-32.25,0.184,-0.240,-0.772,0.560
1015230.000000,0.026,-0.923,-0.326,-54.37,-150.85,9.45,-46.02,30.85,-8.54,-179.23,-71.67,-32.76,0.170,-0.232,-0.777,0.560
1015240.000000,-0.007,-0.934,-0.317,-53.62,-120.13,9.49,-48.00,31.00,-7.83,178.92,-71.13,-33.07,0.158,-0.226,-0.781,0.560
1015250.000000,-0.040,-0.968,-0.335,-52.42,-107.59,15.39,-48.14,30.77,-7.50,177.48,-70.59,-33.29,0.148,-0.222,-0.785,0.559
1015260.000000,-0.052,-0.963,-0.350,-50.40,-120.72,22.71,-48.42,30.92,-6.63,176.08,-70.06,-33.62,0.139,-0.218,-0.789,0.557
1015270.000000,-0.112,-0.939,-0.335,-47.73,-144.63,25.70,-48.42,31.00,-5.79,174.41,-69.54,-34.13,0.129,-0.214,-0.792,0.556
1015280.000000,-0.167,-0.926,-0.325,-46.80,-165.32,24.87,-48.92,31.31,-4.96,172.47,-69.03,-34.70,0.117,-0.210,-0.796,0.556
1015290.000000,-0.192,-0.952,-0.350,-52.33,-163.25,18.63,-48.60,31.46,-3.75,170.36,-68.54,-35.21,0.103,-0.204,-0.799,0.556
1015300.000000,-0.187,-0.954,-0.370,-59.53,-147.71,11.07,-48.77,31.18,-3.04,168.42,-68.00,-35.53,0.090,-0.198,-0.803,0.555
1015310.000000,-0.146,-0.926,-0.359,-63.45,-143.62,3.31,-49.18,31.27,-2.00,166.88,-67.40,-35.56,0.078,-0.192,-0.806,0.554
1015320.000000,-0.155,-0.941,-0.353,-63.64,-178.19,-8.14,-49.14,31.64,-1.42,165.65,-66.78,-35.33,0.066,-0.186,-0.810,0.552
1015330.000000,-0.178,-0.936,-0.372,-63.07,-242.83,-14.90,-49.18,31.54,-0.33,164.42,-66.19,-34.78,0.053,-0.177,-0.814,0.550
1015340.000000,-0.220,-0.904,-0.343,-62.78,-290.77,-15.41,-48.68,30.96,1.17,162.76,-65.62,-34.02,0.036,-0.165,-0.818,0.549
1015350.000000,-0.224,-0.900,-0.358,-62.95,-305.20,-10.91,-48.73,30.23,2.63,160.63,-65.08,-33.22,0.016,-0.151,-0.822,0.549
1015360.000000,-0.243,-0.849,-0.413,-67.94,-277.57,-7.92,-48.88,30.39,3.67,158.26,-64.53,-32.48,0.007,0.136,0.825,-0.548
1015370.000000,-0.195,-0.876,-0.591,-53.79,-210.72,0.71,-49.14,30.04,5.17,156.11,-63.95,-31.73,0.027,0.122,0.828,-0.546
1015380.000000,-0.232,-0.930,-0.447,-19.13,-132.97,27.02,-48.92,29.85,6.29,154.38,-63.43,-31.20,0.044,0.111,0.830,-0.544
1015390.000000,-0.255,-0.951,-0.359,-22.67,-112.58,15.42,-48.68,30.96,7.38,152.76,-63.10,-31.42,0.055,0.106,0.831,-0.544
1015400.000000,-0.246,-0.952,-0.358,-37.88,-134.76,-17.37,-48.08,31.18,7.75,151.51,-62.83,-31.55,0.065,0.101,0.831,-0.543
1015410.000000,-0.241,-0.915,-0.387,-48.99,-150.19,-16.35,-48.08,30.81,8.71,150.74,-62.58,-30.93,0.074,0.094,0.832,-0.542
1015420.000000,-0.270,-0.887,-0.388,-46.84,-141.37,5.99,-47.73,31.04,9.54,149.98,-62.25,-30.11,0.084,0.085,0.833,-0.540
1015430.000000,-0.307,-0.863,-0.398,-41.20,-121.54,20.17,-47.92,30.77,9.92,148.96,-61.83,-29.65,0.095,0.079,0.834,-0.537
1015440.000000,-0.297,-0.839,-0.437,-33.81,-99.72,19.56,-45.60,30.08,10.79,147.82,-61.38,-29.53,0.106,0.074,0.835,-0.535
1015450.000000,-0.273,-0.842,-0.417,-22.84,-84.81,11.81,-45.48,30.04,11.29,146.82,-60.97,-29.50,0.114,0.070,0.836,-0.533
1015460.000000,-0.260,-0.876,-0.404,-11.50,-100.06,6.35,-45.14,30.27,11.71,145.99,-60.69,-29.45,0.121,0.067,0.836,-0.531
1015470.000000,-0.307,-0.908,-0.390,-10.14,-137.39,1.21,-45.29,30.77,12.33,145.05,-60.55,-29.42,0.129,0.063,0.835,-0.531
1015480.000000,-0.382,-0.941,-0.379,-12.35,-165.89,1.72,-44.75,30.31,12.50,143.81,-60.45,-29.32,0.139,0.057,0.834,-0.531
1015490.000000,-0.437,-0.932,-0.388,-15.57,-178.41,1.13,-46.21,30.54,13.29,142.28,-60.35,-29.20,0.151,0.049,0.833,-0.531
1015500.000000,-0.473,-0.943,-0.407,-15.80,-174.35,-2.75,-45.79,30.50,13.58,140.65,-60.22,-29.04,0.164,0.041,0.831,-0.530
1015510.000000,-0.472,-0.938,-0.405,-12.05,-161.78,-7.88,-45.10,30.08,14.58,139.09,-60.12,-28.81,0.176,0.032,0.829,-0.530
1015520.000000,-0.437,-0.898,-0.370,-7.60,-153.73,-14.87,-44.98,30.46,14.71,137.70,-60.07,-28.54,0.188,0.024,0.827,-0.529
1015530.000000,-0.422,-0.899,-0.339,-3.92,-162.01,-21.90,-44.33,30.00,15.50,136.42,-60.10,-28.22,0.198,0.016,0.825,-0.529
1015540.000000,-0.403,-0.890,-0.327,-3.09,-174.45,-24.92,-43.64,29.89,16.00,135.12,-60.22,-27.87,0.209,0.007,0.822,-0.530
1015550.000000,-0.398,-0.862,-0.336,-6.46,-170.49,-24.20,-43.31,30.08,16.38,133.72,-60.37,-27.49,0.220,-0.003,0.819,-0.530
1015560.000000,-0.395,-0.839,-0.344,-5.00,-147.16,-21.65,-42.43,29.48,16.83,132.37,-60.50,-27.07,0.231,-0.013,0.816,-0.530
1015570.000000,-0.347,-0.863,-0.361,-0.32,-112.93,-18.44,-42.13,29.48,17.25,131.19,-60.63,-26.69,0.241,-0.021,0.813,-0.530
1015580.000000,-0.305,-0.860,-0.324,2.44,-101.43,-18.71,-42.04,30.00,17.63,130.25,-60.77,-26.43,0.248,-0.028,0.811,-0.530
1015590.000000,-0.329,-0.876,-0.312,3.58,-130.97,-19.61,-41.67,29.48,18.42,129.41,-60.92,-26.21,0.255,-0.034,0.808,-0.530
1015600.000000,-0.382,-0.878,-0.301,4.66,-168.43,-14.45,-41.02,29.31,18.50,128.33,-61.10,-26.00,0.263,-0.041,0.805,-0.530
1015610.000000,-0.444,-0.893,-0.316,9.37,-184.41,-9.52,-40.25,29.43,19.42,126.81,-61.25,-25.88,0.273,-0.050,0.801,-0.530
1015620.000000,-0.482,-0.904,-0.300,13.35,-162.22,-10.29,-40.18,28.98,19.54,124.97,-61.38,-25.90,0.286,-0.059,0.796,-0.530
1015630.000000,-0.493,-0.925,-0.245,16.77,-114.32,-12.76,-38.92,29.31,19.63,123.21,-61.53,-26.00,0.297,-0.067,0.791,-0.530
1015640.000000,-0.467,-0.946,-0.221,13.97,-80.94,-14.51,-39.04,29.27,19.71,121.87,-61.72,-26.15,0.305,-0.073,0.787,-0.531
1015650.000000,-0.453,-0.947,-0.185,4.69,-102.94,-20.70,-39.00,29.54,20.13,120.92,-61.91,-26.26,0.310,-0.077,0.784,-0.532
1015660.000000,-0.490,-0.924,-0.168,-2.58,-165.13,-28.23,-38.42,29.27,20.21,120.02,-62.11,-26.16,0.316,-0.083,0.781,-0.532
1015670.000000,-0.526,-0.921,-0.147,-3.24,-207.60,-27.77,-37.93,28.98,20.50,118.72,-62.34,-25.86,0.325,-0.092,0.776,-0.532
1015680.000000,-0.543,-0.895,-0.116,-1.77,-208.95,-25.93,-37.13,29.63,21.00,116.97,-62.57,-25.54,0.338,-0.104,0.770,-0.531
1015690.000000,-0.547,-0.898,-0.109,-4.35,-178.69,-28.87,-36.25,29.39,21.25,115.07,-62.79,-25.30,0.351,-0.115,0.764,-0.529
1015700.000000,-0.491,-0.917,-0.188,-8.89,-137.43,-30.72,-35.98,29.43,21.83,113.48,-63.02,-25.02,0.362,-0.125,0.758,-0.528
1015710.000000,-0.411,-0.894,-0.194,-15.24,-133.00,-37.08,-35.38,29.17,21.67,112.38,-63.25,-24.64,0.370,-0.134,0.753,-0.527
1015720.000000,-0.399,-0.898,-0.177,-13.57,-176.59,-43.61,-34.64,29.04,22.08,111.58,-63.51,-24.05,0.377,-0.143,0.749,-0.525
1015730.000000,-0.433,-0.923,-0.140,-5.19,-215.94,-32.85,-34.31,28.98,22.46,110.45,-63.86,-23.41,0.386,-0.154,0.744,-0.524
1015740.000000,-0.461,-0.905,-0.148,1.48,-226.95,-24.98,-32.58,28.85,22.83,108.71,-64.17,-23.00,0.398,-0.166,0.736,-0.521
1015750.000000,-0.448,-0.908,-0.150,0.05,-182.77,-31.56,-31.67,28.98,23.00,106.59,-64.41,-22.84,0.411,-0.178,0.728,-0.519
1015760.000000,-0.430,-0.897,-0.123,-3.53,-90.60,-32.16,-30.68,28.58,23.13,104.87,-64.71,-22.65,0.422,-0.188,0.721,-0.517
1015770.000000,-0.402,-0.889,-0.055,-5.35,-19.34,-28.14,-30.68,28.93,23.33,104.08,-65.01,-22.39,0.427,-0.195,0.716,-0.516
1015780.000000,-0.417,-0.897,-0.009,-6.82,-19.69,-26.76,-30.92,28.75,23.38,104.06,-65.27,-22.10,0.427,-0.198,0.715,-0.517
1015790.000000,-0.480,-0.906,0.017,-7.95,-67.42,-25.74,-30.64,29.08,23.25,104.15,-65.51,-21.80,0.427,-0.201,0.714,-0.517
1015800.000000,-0.516,-0.932,0.012,-9.97,-101.35,-24.77,-30.29,28.52,23.25,103.82,-65.74,-21.49,0.430,-0.206,0.712,-0.516
1015810.000000,-0.486,-0.914,-0.029,-13.30,-101.28,-28.37,-29.77,28.75,23.75,103.14,-65.96,-21.15,0.434,-0.212,0.708,-0.515
1015820.000000,-0.391,-0.911,-0.074,-18.12,-66.10,-36.66,-29.50,28.85,23.58,102.52,-66.19,-20.72,0.439,-0.219,0.704,-0.513
