TimeStamp,AccX,AccY,AccZ,GyrX,GyrY,GyrZ,MagX,MagY,MagZ,Roll,Pitch,Yaw,Qw,Qx,Qy,Qz
817268.000000,-0.002,0.956,-0.158,0.11,0.03,0.03,12.93,-15.73,-6.38,-179.16,80.64,148.74,0.625,0.735,-0.201,-0.169
817278.000000,0.002,0.958,-0.159,-0.05,0.12,0.03,13.02,-15.58,-6.42,-179.16,80.64,148.74,0.625,0.735,-0.201,-0.169
817288.000000,0.002,0.959,-0.163,-0.11,-0.01,0.14,13.06,-15.63,-6.21,-179.17,80.64,148.74,0.625,0.735,-0.201,-0.169
817298.000000,0.001,0.958,-0.159,-0.01,-0.01,0.03,13.13,-15.04,-6.46,-179.17,80.64,148.74,0.625,0.735,-0.201,-0.169
817308.000000,0.001,0.959,-0.159,0.05,-0.05,-0.07,12.98,-15.27,-5.96,-179.17,80.64,148.74,0.625,0.735,-0.201,-0.169
817318.000000,0.003,0.959,-0.156,0.03,0.12,0.05,13.02,-15.27,-5.54,-179.17,80.64,148.74,0.625,0.735,-0.201,-0.169
817328.000000,0.005,0.960,-0.156,0.03,0.03,0.07,13.13,-15.46,-5.54,-179.17,80.64,148.74,0.625,0.735,-0.201,-0.169
817338.000000,0.003,0.958,-0.160,0.03,0.01,0.01,12.98,-15.50,-5.88,-179.17,80.64,148.74,0.625,0.735,-0.201,-0.169
817348.000000,0.003,0.958,-0.158,-0.05,-0.03,-0.01,12.83,-15.54,-5.63,-179.17,80.64,148.74,0.625,0.735,-0.201,-0.169
817358.000000,0.002,0.959,-0.156,-0.01,0.14,-0.01,12.83,-15.54,-5.63,-179.17,80.64,148.74,0.625,0.735,-0.201,-0.169
817368.000000,0.002,0.960,-0.159,0.05,0.03,0.10,12.71,-15.67,-5.50,-179.17,80.65,148.74,0.625,0.735,-0.201,-0.169
817378.000000,0.001,0.958,-0.160,-0.01,0.12,0.01,12.52,-15.67,-5.67,-179.16,80.65,148.74,0.625,0.735,-0.201,-0.169
817388.000000,0.002,0.960,-0.159,0.03,-0.07,-0.05,12.38,-15.63,-5.33,-179.16,80.65,148.74,0.625,0.735,-0.201,-0.169
817398.000000,0.002,0.959,-0.155,0.07,0.09,-0.01,12.75,-15.54,-5.46,-179.16,80.65,148.74,0.625,0.735,-0.201,-0.169
817408.000000,0.002,0.956,-0.158,-0.01,0.14,0.01,12.75,-15.39,-5.58,-179.16,80.65,148.74,0.625,0.735,-0.201,-0.169
817418.000000,0.005,0.958,-0.155,0.13,0.05,-0.01,13.02,-15.50,-5.71,-179.16,80.64,148.74,0.625,0.735,-0.201,-0.169
817428.000000,0.006,0.959,-0.156,-0.01,-0.07,-0.03,12.93,-15.77,-5.38,-179.16,80.64,148.74,0.625,0.735,-0.201,-0.169
817438.000000,-0.000,0.959,-0.155,-0.01,0.16,-0.01,13.02,-15.58,-5.75,-179.16,80.64,148.74,0.625,0.735,-0.201,-0.169
817448.000000,0.001,0.962,-0.158,0.11,0.01,0.12,12.83,-16.04,-5.67,-179.16,80.65,148.74,0.625,0.735,-0.201,-0.169
817458.000000,0.003,0.958,-0.162,-0.03,-0.05,-0.03,13.39,-15.77,-5.38,-179.16,80.65,148.74,0.625,0.735,-0.201,-0.169
817468.000000,0.002,0.959,-0.164,0.07,0.05,-0.01,13.21,-15.54,-5.67,-179.16,80.65,148.74,0.625,0.735,-0.201,-0.169
817478.000000,0.003,0.959,-0.162,-0.11,0.09,-0.01,12.83,-15.39,-5.88,-179.16,80.65,148.74,0.625,0.735,-0.201,-0.169
817488.000000,0.001,0.960,-0.156,-0.09,-0.07,0.03,12.93,-15.58,-5.96,-179.17,80.65,148.74,0.625,0.735,-0.201,-0.169
817498.000000,0.003,0.960,-0.158,-0.03,-0.05,-0.03,13.02,-15.77,-5.83,-179.16,80.64,148.74,0.625,0.735,-0.201,-0.169
817508.000000,0.005,0.963,-0.154,0.05,0.01,0.03,13.21,-15.46,-5.96,-179.17,80.64,148.74,0.625,0.735,-0.201,-0.169
817518.000000,0.005,0.960,-0.159,-0.07,-0.01,0.01,13.21,-16.68,-5.71,-179.16,80.64,148.74,0.625,0.735,-0.201,-0.169
817528.000000,0.001,0.958,-0.158,0.01,0.12,-0.01,13.21,-16.58,-5.71,-179.16,80.65,148.74,0.625,0.735,-0.201,-0.169
817538.000000,0.005,0.960,-0.155,0.01,-0.15,-0.09,13.21,-16.68,-5.88,-179.16,80.65,148.74,0.625,0.735,-0.201,-0.169
817548.000000,0.003,0.956,-0.160,0.03,0.03,0.05,12.93,-16.42,-5.79,-179.16,80.65,148.74,0.625,0.735,-0.201,-0.169
817558.000000,-0.000,0.960,-0.156,0.07,0.07,-0.03,13.43,-16.54,-5.92,-179.16,80.65,148.73,0.625,0.735,-0.201,-0.169
817568.000000,0.001,0.956,-0.156,0.05,0.01,-0.05,13.43,-16.54,-5.92,-179.16,80.65,148.73,0.625,0.735,-0.201,-0.169
817578.000000,-0.000,0.959,-0.158,0.05,0.01,-0.01,12.71,-15.81,-5.50,-179.16,80.65,148.74,0.625,0.735,-0.201,-0.169
817588.000000,0.003,0.958,-0.156,-0.09,-0.01,0.01,12.48,-16.04,-5.54,-179.16,80.65,148.74,0.625,0.735,-0.201,-0.169
817598.000000,0.005,0.959,-0.163,-0.07,0.05,0.06,12.60,-16.04,-5.50,-179.16,80.65,148.74,0.625,0.735,-0.201,-0.169
817608.000000,0.002,0.960,-0.156,0.07,0.07,-0.05,12.56,-16.08,-5.63,-179.17,80.65,148.74,0.625,0.735,-0.201,-0.169
817618.000000,0.002,0.962,-0.156,0.03,-0.07,0.03,12.56,-16.08,-5.63,-179.16,80.65,148.74,0.625,0.735,-0.201,-0.169
817628.000000,0.003,0.959,-0.164,0.03,-0.09,-0.05,15.31,-16.08,-5.17,-179.16,80.65,148.74,0.625,0.735,-0.201,-0.169
817638.000000,0.001,0.958,-0.154,0.03,0.03,-0.05,15.27,-16.23,-5.71,-179.16,80.65,148.74,0.625,0.735,-0.201,-0.169
817648.000000,0.001,0.959,-0.159,0.01,0.05,-0.01,14.96,-16.42,-5.25,-179.16,80.65,148.74,0.625,0.735,-0.201,-0.169
817658.000000,0.001,0.960,-0.158,0.11,-0.03,-0.03,15.64,-16.00,-5.88,-179.16,80.65,148.74,0.625,0.735,-0.201,-0.169
817668.000000,-0.000,0.964,-0.163,0.07,0.03,-0.03,15.64,-16.00,-5.88,-179.16,80.65,148.74,0.625,0.735,-0.201,-0.169
817678.000000,0.002,0.958,-0.160,0.13,-0.03,-0.01,12.79,-15.27,-5.96,-179.16,80.65,148.74,0.625,0.735,-0.201,-0.169
817688.000000,0.003,0.959,-0.156,-0.03,0.01,0.01,12.56,-15.23,-5.67,-179.16,80.65,148.74,0.625,0.735,-0.201,-0.169
817698.000000,-0.000,0.959,-0.158,0.03,-0.01,0.05,12.83,-15.17,-5.92,-179.16,80.65,148.74,0.625,0.735,-0.201,-0.169
817708.000000,0.002,0.962,-0.160,0.05,0.16,0.03,12.43,-15.46,-6.08,-179.16,80.65,148.74,0.625,0.735,-0.201,-0.169
817718.000000,0.005,0.956,-0.162,-0.01,0.09,-0.05,12.43,-15.46,-6.08,-179.16,80.65,148.74,0.625,0.735,-0.201,-0.169
817728.000000,0.003,0.959,-0.163,-0.05,0.12,0.03,12.98,-16.00,-5.46,-179.16,80.65,148.73,0.625,0.735,-0.201,-0.169
817738.000000,0.002,0.960,-0.160,-0.07,0.09,0.04,13.06,-15.67,-5.83,-179.16,80.65,148.73,0.625,0.735,-0.201,-0.169
817748.000000,0.001,0.959,-0.158,0.09,0.09,0.09,13.17,-15.63,-5.79,-179.16,80.65,148.74,0.625,0.735,-0.201,-0.169
817758.000000,0.005,0.958,-0.160,0.07,0.12,0.03,13.17,-15.81,-5.54,-179.16,80.65,148.73,0.625,0.735,-0.201,-0.169
817768.000000,-0.000,0.959,-0.158,0.07,-0.03,-0.05,13.17,-15.81,-5.54,-179.16,80.65,148.73,0.625,0.735,-0.201,-0.169
817778.000000,0.005,0.960,-0.158,-0.05,0.16,0.01,13.25,-15.58,-5.71,-179.16,80.65,148.73,0.625,0.735,-0.201,-0.169
817788.000000,0.001,0.960,-0.158,0.03,0.09,-0.01,13.02,-16.04,-5.67,-179.16,80.65,148.73,0.625,0.735,-0.201,-0.169
817798.000000,-0.002,0.952,-0.159,-0.01,-0.03,0.03,13.02,-15.63,-5.50,-179.16,80.65,148.73,0.625,0.735,-0.201,-0.169
817808.000000,0.002,0.960,-0.158,0.03,-0.05,0.01,13.21,-15.77,-5.46,-179.16,80.65,148.73,0.625,0.735,-0.201,-0.169
817818.000000,0.003,0.960,-0.155,0.01,0.05,0.01,13.21,-15.77,-5.46,-179.16,80.65,148.73,0.625,0.735,-0.201,-0.169
817828.000000,0.002,0.958,-0.158,-0.11,-0.07,-0.07,12.79,-15.96,-5.79,-179.16,80.65,148.73,0.625,0.735,-0.201,-0.169
817838.000000,0.005,0.960,-0.155,0.03,0.03,0.01,12.89,-15.96,-5.92,-179.16,80.65,148.73,0.625,0.735,-0.201,-0.169
817848.000000,0.006,0.959,-0.159,0.05,0.03,0.03,12.89,-16.04,-5.83,-179.16,80.65,148.73,0.625,0.735,-0.201,-0.169
817858.000000,0.005,0.960,-0.156,0.01,-0.11,-0.07,12.83,-15.67,-5.83,-179.16,80.65,148.73,0.625,0.735,-0.201,-0.169
817868.000000,-0.001,0.959,-0.160,0.01,0.03,0.01,12.83,-15.67,-5.83,-179.15,80.65,148.73,0.625,0.735,-0.201,-0.169
817878.000000,0.002,0.958,-0.154,0.01,0.03,0.10,12.98,-14.85,-5.75,-179.15,80.65,148.73,0.625,0.735,-0.201,-0.169
817888.000000,0.002,0.960,-0.159,-0.01,-0.03,0.03,13.39,-14.58,-5.96,-179.15,80.65,148.73,0.625,0.735,-0.201,-0.169
817898.000000,0.002,0.959,-0.155,0.11,0.07,-0.01,13.39,-14.58,-5.96,-179.15,80.65,148.73,0.625,0.735,-0.201,-0.169
817908.000000,0.001,0.959,-0.152,0.05,-0.01,0.05,13.39,-14.58,-5.96,-179.15,80.65,148.73,0.625,0.735,-0.201,-0.169
817918.000000,0.001,0.958,-0.155,-0.01,-0.01,-0.03,13.39,-14.58,-5.96,-179.16,80.65,148.73,0.625,0.735,-0.201,-0.169
817928.000000,0.005,0.958,-0.160,-0.01,0.05,0.03,12.48,-16.54,-5.96,-179.16,80.65,148.73,0.625,0.735,-0.201,-0.169
817938.000000,0.003,0.958,-0.156,-0.03,-0.01,-0.03,12.48,-16.54,-5.96,-179.15,80.65,148.73,0.625,0.735,-0.201,-0.169
817948.000000,0.003,0.959,-0.156,-0.05,-0.17,0.01,12.33,-16.68,-5.92,-179.16,80.65,148.73,0.625,0.735,-0.201,-0.169
817958.000000,0.001,0.959,-0.158,-0.11,0.01,0.04,12.33,-16.73,-5.92,-179.16,80.65,148.73,0.625,0.735,-0.201,-0.169
817968.000000,0.003,0.959,-0.158,-0.07,-0.03,-0.05,11.83,-16.77,-5.88,-179.16,80.65,148.73,0.625,0.735,-0.201,-0.169
817978.000000,-0.000,0.962,-0.155,-0.01,-0.07,-0.01,12.43,-15.77,-5.63,-179.16,80.65,148.73,0.625,0.735,-0.201,-0.169
817988.000000,0.002,0.959,-0.158,-0.03,0.01,0.08,12.21,-15.54,-5.58,-179.16,80.65,148.73,0.625,0.735,-0.201,-0.169
817998.000000,0.002,0.959,-0.156,0.01,0.07,-0.03,12.43,-15.85,-5.67,-179.16,80.65,148.73,0.625,0.735,-0.201,-0.169
818008.000000,0.003,0.959,-0.155,-0.07,0.01,0.01,12.52,-15.50,-5.54,-179.16,80.65,148.73,0.625,0.735,-0.201,-0.169
818018.000000,0.002,0.956,-0.160,-0.13,0.14,0.06,12.29,-15.31,-5.92,-179.16,80.65,148.73,0.625,0.735,-0.201,-0.169
818028.000000,0.005,0.960,-0.159,-0.05,0.07,0.03,12.67,-16.64,-5.79,-179.16,80.65,148.73,0.625,0.735,-0.201,-0.169
818038.000000,0.005,0.959,-0.158,0.05,0.03,-0.03,13.02,-16.50,-5.38,-179.16,80.65,148.73,0.625,0.735,-0.201,-0.169
818048.000000,0.002,0.959,-0.156,-0.07,0.01,-0.01,12.71,-16.54,-5.46,-179.15,80.64,148.73,0.625,0.735,-0.201,-0.169
818058.000000,0.001,0.958,-0.155,-0.01,0.07,-0.01,13.02,-16.88,-5.75,-179.16,80.64,148.73,0.625,0.735,-0.201,-0.169
818068.000000,0.002,0.959,-0.160,0.13,0.24,-0.01,12.75,-16.50,-5.92,-179.16,80.64,148.73,0.625,0.735,-0.201,-0.169
818078.000000,0.003,0.962,-0.155,-0.01,0.03,0.08,12.98,-16.64,-5.83,-179.16,80.64,148.73,0.625,0.735,-0.201,-0.169
818088.000000,0.003,0.962,-0.156,0.05,-0.01,-0.03,13.02,-16.23,-5.46,-179.16,80.64,148.73,0.625,0.735,-0.201,-0.169
818098.000000,-0.000,0.960,-0.155,0.01,-0.07,-0.03,12.83,-16.64,-5.54,-179.16,80.65,148.73,0.625,0.735,-0.201,-0.169
818108.000000,0.003,0.963,-0.162,-0.05,0.09,-0.05,12.56,-16.31,-5.88,-179.16,80.65,148.73,0.625,0.735,-0.201,-0.169
818118.000000,0.002,0.956,-0.155,-0.07,0.05,-0.03,12.89,-16.46,-5.63,-179.16,80.65,148.73,0.625,0.735,-0.201,-0.169
818128.000000,0.002,0.960,-0.159,-0.01,0.07,-0.07,13.21,-15.85,-5.75,-179.16,80.65,148.73,0.625,0.735,-0.201,-0.169
818138.000000,0.002,0.960,-0.156,0.03,0.22,-0.01,13.06,-15.35,-6.21,-179.16,80.65,148.73,0.625,0.735,-0.201,-0.169
818148.000000,0.003,0.955,-0.158,-0.01,-0.03,-0.05,12.89,-15.67,-5.92,-179.15,80.65,148.73,0.625,0.735,-0.201,-0.169
818158.000000,0.003,0.960,-0.162,-0.01,-0.05,0.01,12.83,-16.08,-6.25,-179.15,80.65,148.73,0.625,0.735,-0.201,-0.169
818168.000000,0.002,0.959,-0.158,0.01,0.09,-0.07,12.98,-15.50,-6.13,-179.15,80.65,148.73,0.625,0.735,-0.201,-0.169
818178.000000,0.001,0.960,-0.155,-0.05,-0.05,-0.05,13.39,-16.42,-5.83,-179.15,80.64,148.73,0.625,0.735,-0.201,-0.169
818188.000000,0.002,0.958,-0.159,0.01,-0.01,0.03,13.43,-16.81,-5.63,-179.15,80.64,148.73,0.625,0.735,-0.201,-0.169
818198.000000,0.005,0.959,-0.158,-0.07,-0.09,-0.07,13.29,-16.27,-5.50,-179.15,80.64,148.73,0.625,0.735,-0.201,-0.169
818208.000000,-0.000,0.960,-0.154,-0.09,0.14,-0.05,13.02,-16.81,-5.92,-179.16,80.64,148.73,0.625,0.735,-0.201,-0.169
818218.000000,0.003,0.959,-0.158,-0.01,0.05,-0.01,13.29,-16.27,-5.33,-179.16,80.64,148.73,0.625,0.735,-0.201,-0.169
818228.000000,0.003,0.956,-0.156,-0.03,-0.03,-0.05,13.17,-15.46,-5.38,-179.16,80.64,148.73,0.625,0.735,-0.201,-0.169
818238.000000,0.001,0.959,-0.160,0.11,0.07,0.05,12.67,-15.58,-5.96,-179.16,80.64,148.73,0.625,0.735,-0.201,-0.169
818248.000000,0.001,0.958,-0.159,0.01,0.05,-0.01,12.89,-15.63,-5.88,-179.16,80.64,148.73,0.625,0.735,-0.201,-0.169
818258.000000,-0.000,0.962,-0.151,0.01,0.01,-0.07,12.89,-15.50,-6.04,-179.16,80.64,148.73,0.625,0.735,-0.201,-0.169
818268.000000,0.003,0.958,-0.156,-0.03,-0.01,0.05,12.93,-15.50,-5.67,-179.16,80.64,148.73,0.625,0.735,-0.201,-0.169
818278.000000,0.005,0.958,-0.158,-0.03,-0.09,-0.01,12.48,-16.35,-5.58,-179.16,80.64,148.73,0.625,0.735,-0.201,-0.169
818288.000000,0.001,0.958,-0.158,-0.03,0.09,-0.01,12.10,-16.31,-5.75,-179.16,80.64,148.73,0.625,0.735,-0.201,-0.169
818298.000000,0.003,0.958,-0.158,-0.05,-0.03,0.01,12.38,-16.18,-5.50,-179.16,80.64,148.73,0.625,0.735,-0.201,-0.169
818308.000000,0.003,0.963,-0.159,0.01,-0.01,0.05,12.02,-16.42,-5.42,-179.16,80.64,148.74,0.625,0.735,-0.201,-0.169
818318.000000,0.002,0.958,-0.159,0.05,0.03,0.01,12.33,-16.23,-5.75,-179.16,80.64,148.74,0.625,0.735,-0.201,-0.169
818328.000000,0.002,0.960,-0.158,0.03,0.05,-0.01,12.89,-15.35,-5.63,-179.16,80.64,148.74,0.625,0.735,-0.201,-0.169
818338.000000,0.001,0.958,-0.155,0.03,-0.01,-0.03,12.98,-15.39,-5.46,-179.16,80.64,148.74,0.625,0.735,-0.201,-0.169
818348.000000,0.002,0.959,-0.162,-0.05,-0.03,0.12,13.02,-15.23,-5.54,-179.16,80.64,148.74,0.625,0.735,-0.201,-0.169
818358.000000,-0.001,0.955,-0.169,-0.03,-0.09,0.03,13.13,-15.27,-5.88,-179.16,80.65,148.74,0.625,0.735,-0.201,-0.169
818368.000000,-0.000,0.960,-0.156,-0.22,0.05,0.10,12.89,-15.04,-5.42,-179.16,80.64,148.73,0.625,0.735,-0.201,-0.169
818378.000000,0.005,0.959,-0.149,0.29,-0.05,-0.25,12.21,-15.54,-5.92,-179.16,80.64,148.74,0.625,0.735,-0.201,-0.169
818388.000000,0.007,0.960,-0.153,0.07,0.03,0.05,12.25,-15.50,-5.71,-179.16,80.64,148.73,0.625,0.735,-0.201,-0.169
818398.000000,0.003,0.956,-0.158,0.07,0.03,-0.07,11.88,-15.31,-5.83,-179.16,80.64,148.73,0.625,0.735,-0.201,-0.169
818408.000000,0.005,0.960,-0.154,-0.03,-0.01,0.05,12.14,-15.35,-5.75,-179.15,80.64,148.73,0.625,0.735,-0.201,-0.169
818418.000000,0.003,0.960,-0.160,0.15,0.07,0.01,11.98,-15.46,-5.46,-179.16,80.64,148.73,0.625,0.735,-0.201,-0.169
818428.000000,0.001,0.959,-0.158,0.09,-0.07,-0.01,13.13,-15.13,-5.58,-179.15,80.64,148.73,0.625,0.735,-0.201,-0.169
818438.000000,0.003,0.958,-0.159,-0.09,-0.03,0.08,12.89,-15.17,-5.79,-179.15,80.64,148.73,0.625,0.735,-0.201,-0.169
818449.000000,0.003,0.960,-0.160,0.03,-0.19,-0.05,13.17,-15.67,-5.79,-179.16,80.64,148.73,0.625,0.735,-0.201,-0.169
818459.000000,0.003,0.958,-0.160,-0.03,0.14,-0.05,13.13,-15.50,-5.71,-179.15,80.64,148.73,0.625,0.735,-0.201,-0.169
818468.000000,0.001,0.960,-0.159,0.07,0.09,0.05,13.06,-15.27,-5.46,-179.16,80.64,148.73,0.625,0.735,-0.201,-0.169
818478.000000,0.001,0.959,-0.159,-0.09,-0.05,-0.07,12.02,-15.96,-5.67,-179.16,80.64,148.73,0.625,0.735,-0.201,-0.169
818488.000000,0.002,0.959,-0.155,0.05,0.05,-0.07,11.98,-15.85,-5.42,-179.16,80.64,148.73,0.625,0.735,-0.201,-0.169
818498.000000,0.001,0.959,-0.155,0.03,0.01,-0.13,12.14,-16.04,-5.67,-179.16,80.64,148.74,0.625,0.735,-0.201,-0.169
818508.000000,0.002,0.960,-0.160,0.03,0.01,0.07,11.83,-15.85,-5.33,-179.16,80.64,148.73,0.625,0.735,-0.201,-0.169
818518.000000,0.002,0.958,-0.158,-0.05,-0.05,-0.05,12.10,-15.50,-5.75,-179.16,80.64,148.73,0.625,0.735,-0.201,-0.169
818528.000000,0.006,0.959,-0.159,-0.05,-0.05,-0.03,12.48,-16.04,-5.79,-179.16,80.64,148.73,0.625,0.735,-0.201,-0.169
818538.000000,0.001,0.959,-0.159,-0.05,0.05,-0.01,11.92,-15.77,-5.71,-179.16,80.64,148.74,0.625,0.735,-0.201,-0.169
818548.000000,0.002,0.959,-0.160,0.01,0.07,0.03,12.52,-15.54,-6.00,-179.16,80.64,148.74,0.625,0.735,-0.201,-0.169
818558.000000,0.003,0.960,-0.162,0.07,-0.01,0.01,12.06,-15.73,-5.63,-179.16,80.64,148.74,0.625,0.735,-0.201,-0.169
818568.000000,0.001,0.962,-0.162,0.01,0.01,0.01,11.88,-15.58,-6.17,-179.16,80.64,148.74,0.625,0.735,-0.201,-0.169
818578.000000,0.002,0.959,-0.155,-0.05,-0.01,-0.09,12.02,-16.13,-5.83,-179.16,80.64,148.74,0.625,0.735,-0.201,-0.169
818588.000000,0.001,0.955,-0.162,-0.07,0.05,0.01,11.83,-16.13,-5.75,-179.16,80.64,148.74,0.625,0.735,-0.201,-0.169
818598.000000,0.002,0.960,-0.167,-0.09,-0.07,-0.05,11.83,-16.46,-6.08,-179.16,80.64,148.73,0.625,0.735,-0.201,-0.169
818608.000000,0.001,0.959,-0.151,0.03,-0.13,0.03,11.33,-16.35,-5.71,-179.16,80.64,148.73,0.625,0.735,-0.201,-0.169
818618.000000,0.002,0.958,-0.158,0.01,0.16,0.03,11.98,-16.54,-5.71,-179.16,80.64,148.73,0.625,0.735,-0.201,-0.169
818628.000000,-0.001,0.958,-0.163,-0.01,0.05,-0.03,12.98,-15.58,-5.54,-179.16,80.64,148.73,0.625,0.735,-0.201,-0.169
818638.000000,0.003,0.960,-0.163,-0.07,-0.01,-0.03,12.89,-15.50,-5.88,-179.16,80.64,148.73,0.625,0.735,-0.201,-0.169
818648.000000,0.003,0.958,-0.158,-0.05,0.01,0.03,13.02,-16.04,-5.79,-179.16,80.64,148.74,0.625,0.735,-0.201,-0.169
818658.000000,0.002,0.962,-0.160,0.03,0.05,0.12,12.93,-15.58,-5.83,-179.16,80.64,148.74,0.625,0.735,-0.201,-0.169
818668.000000,0.002,0.960,-0.156,-0.03,0.05,-0.05,12.98,-15.67,-5.75,-179.16,80.64,148.74,0.625,0.735,-0.201,-0.169
818678.000000,0.005,0.960,-0.156,-0.07,-0.03,0.01,13.13,-15.27,-5.71,-179.16,80.64,148.73,0.625,0.735,-0.201,-0.169
818688.000000,-0.000,0.956,-0.158,0.07,0.03,-0.01,13.43,-15.73,-5.29,-179.16,80.64,148.73,0.625,0.735,-0.201,-0.169
818698.000000,-0.000,0.960,-0.159,0.05,0.01,-0.05,13.13,-15.77,-5.46,-179.15,80.64,148.73,0.625,0.735,-0.201,-0.169
818708.000000,0.003,0.959,-0.156,0.07,0.09,-0.01,13.17,-15.73,-5.75,-179.16,80.64,148.73,0.625,0.735,-0.201,-0.169
818718.000000,0.002,0.959,-0.159,-0.05,-0.01,-0.05,13.81,-15.96,-5.58,-179.16,80.64,148.73,0.625,0.735,-0.201,-0.169
818728.000000,0.005,0.959,-0.155,0.01,0.01,0.05,12.38,-15.81,-5.63,-179.16,80.64,148.73,0.625,0.735,-0.201,-0.169
818738.000000,0.003,0.956,-0.155,0.09,-0.05,0.03,12.56,-15.77,-5.83,-179.16,80.64,148.73,0.625,0.735,-0.201,-0.169
818748.000000,0.003,0.959,-0.156,-0.01,0.07,0.08,12.43,-15.89,-5.75,-179.16,80.64,148.73,0.625,0.735,-0.201,-0.169
818758.000000,0.002,0.958,-0.155,-0.03,0.09,0.03,11.98,-15.73,-5.79,-179.16,80.64,148.73,0.625,0.735,-0.201,-0.169
818768.000000,0.005,0.963,-0.159,-0.03,0.03,0.06,12.56,-15.85,-5.63,-179.15,80.64,148.73,0.625,0.735,-0.201,-0.169
818778.000000,0.001,0.958,-0.159,-0.05,0.01,-0.03,12.71,-16.35,-5.75,-179.15,80.64,148.73,0.625,0.735,-0.201,-0.169
818788.000000,0.002,0.956,-0.155,-0.01,-0.07,0.10,12.14,-16.50,-5.63,-179.15,80.64,148.73,0.625,0.735,-0.201,-0.169
818798.000000,-0.000,0.958,-0.156,0.03,0.09,-0.05,12.67,-16.73,-5.54,-179.15,80.64,148.73,0.625,0.735,-0.201,-0.169
818808.000000,0.003,0.962,-0.159,-0.13,-0.09,-0.03,12.56,-16.46,-5.58,-179.15,80.64,148.73,0.625,0.735,-0.201,-0.169
818818.000000,0.006,0.959,-0.159,-0.09,-0.11,0.01,12.56,-16.50,-5.33,-179.15,80.64,148.73,0.625,0.735,-0.201,-0.169
818828.000000,0.001,0.956,-0.156,0.01,0.07,-0.01,12.71,-16.58,-6.04,-179.16,80.64,148.73,0.625,0.735,-0.201,-0.169
818838.000000,0.003,0.956,-0.159,0.05,0.01,-0.01,13.48,-16.31,-5.50,-179.16,80.64,148.73,0.625,0.735,-0.201,-0.169
818848.000000,0.001,0.958,-0.160,0.01,-0.11,0.05,12.67,-16.68,-5.75,-179.16,80.64,148.73,0.625,0.735,-0.201,-0.169
818858.000000,0.002,0.960,-0.158,0.05,-0.07,0.10,12.89,-16.81,-5.63,-179.15,80.64,148.73,0.625,0.735,-0.201,-0.169
818868.000000,-0.000,0.959,-0.154,-0.03,0.14,-0.03,12.75,-16.77,-5.42,-179.15,80.64,148.73,0.625,0.735,-0.201,-0.169
818878.000000,0.002,0.959,-0.158,-0.05,-0.01,-0.05,12.98,-15.54,-5.63,-179.15,80.64,148.73,0.625,0.735,-0.201,-0.169
818888.000000,-0.000,0.958,-0.154,0.01,-0.07,0.01,13.39,-15.23,-5.46,-179.15,80.64,148.73,0.625,0.735,-0.201,-0.169
818899.000000,0.002,0.959,-0.156,-0.05,0.05,-0.03,13.35,-15.50,-5.83,-179.15,80.64,148.73,0.625,0.735,-0.201,-0.169
818909.000000,0.002,0.959,-0.162,0.07,0.12,-0.03,13.43,-15.35,-5.50,-179.15,80.64,148.73,0.625,0.735,-0.201,-0.169
818919.000000,0.005,0.959,-0.160,-0.05,-0.07,-0.01,13.29,-15.27,-5.83,-179.15,80.64,148.72,0.625,0.735,-0.201,-0.169
818929.000000,0.005,0.958,-0.160,-0.05,0.07,-0.07,12.71,-15.50,-5.54,-179.15,80.64,148.73,0.625,0.735,-0.201,-0.169
818939.000000,0.001,0.958,-0.156,-0.01,-0.09,0.08,12.79,-15.89,-5.79,-179.15,80.64,148.72,0.625,0.735,-0.201,-0.169
818949.000000,0.005,0.958,-0.154,0.03,-0.01,-0.07,12.56,-15.73,-5.88,-179.15,80.64,148.72,0.625,0.735,-0.201,-0.169
818959.000000,0.003,0.958,-0.162,-0.01,0.01,0.03,12.52,-16.23,-5.58,-179.15,80.64,148.72,0.625,0.735,-0.201,-0.169
818969.000000,0.001,0.956,-0.159,0.03,0.01,0.03,12.48,-15.73,-5.79,-179.15,80.64,148.72,0.625,0.735,-0.201,-0.169
818979.000000,0.003,0.958,-0.159,0.01,0.09,-0.01,13.52,-15.00,-5.88,-179.14,80.64,148.72,0.625,0.735,-0.201,-0.169
818989.000000,0.003,0.960,-0.162,0.03,-0.05,-0.03,13.39,-14.85,-5.54,-179.15,80.64,148.72,0.625,0.735,-0.201,-0.169
818999.000000,0.003,0.963,-0.160,-0.01,0.03,0.05,12.75,-15.13,-5.63,-179.15,80.64,148.72,0.625,0.735,-0.201,-0.169
819009.000000,0.003,0.956,-0.159,0.01,-0.03,0.07,12.75,-15.04,-6.04,-179.15,80.64,148.72,0.625,0.735,-0.201,-0.169
819019.000000,0.002,0.960,-0.156,0.07,-0.07,0.03,13.13,-15.27,-5.88,-179.15,80.64,148.72,0.625,0.735,-0.201,-0.169
819029.000000,-0.000,0.958,-0.156,0.09,0.05,-0.07,13.71,-16.18,-5.63,-179.14,80.64,148.72,0.625,0.735,-0.201,-0.169
819039.000000,0.003,0.960,-0.158,-0.07,-0.05,-0.05,13.58,-16.92,-5.54,-179.15,80.64,148.72,0.625,0.735,-0.201,-0.169
819049.000000,0.002,0.958,-0.162,0.03,0.01,-0.01,13.63,-16.96,-5.42,-179.15,80.64,148.72,0.625,0.735,-0.201,-0.169
819059.000000,0.005,0.958,-0.162,0.09,0.05,-0.05,14.04,-16.77,-5.50,-179.15,80.64,148.72,0.625,0.735,-0.201,-0.169
819069.000000,0.002,0.956,-0.160,-0.05,-0.01,-0.07,13.39,-16.64,-5.38,-179.14,80.64,148.72,0.625,0.735,-0.201,-0.169
819079.000000,0.002,0.959,-0.158,0.03,0.03,-0.07,12.67,-16.08,-5.71,-179.14,80.64,148.72,0.625,0.735,-0.201,-0.169
819089.000000,0.002,0.959,-0.159,0.05,-0.09,0.03,12.52,-16.13,-5.54,-179.14,80.64,148.72,0.625,0.735,-0.201,-0.169
819099.000000,0.005,0.962,-0.158,-0.03,0.01,-0.01,12.89,-16.64,-5.88,-179.14,80.64,148.72,0.625,0.735,-0.201,-0.169
819109.000000,0.002,0.960,-0.159,-0.03,-0.21,-0.05,12.79,-16.31,-5.33,-179.14,80.64,148.72,0.625,0.735,-0.201,-0.169
819119.000000,0.003,0.956,-0.156,0.01,0.14,0.05,12.75,-16.13,-5.54,-179.14,80.64,148.72,0.625,0.735,-0.201,-0.169
819129.000000,0.001,0.960,-0.160,0.01,0.09,-0.01,13.43,-15.54,-5.83,-179.14,80.64,148.72,0.625,0.735,-0.201,-0.169
819139.000000,0.005,0.960,-0.158,-0.05,0.18,-0.05,13.21,-15.77,-5.46,-179.14,80.64,148.72,0.625,0.735,-0.201,-0.169
819149.000000,0.005,0.958,-0.155,0.01,-0.07,-0.01,13.39,-15.67,-5.63,-179.14,80.64,148.72,0.625,0.735,-0.201,-0.169
819159.000000,-0.000,0.960,-0.158,0.03,-0.01,-0.09,13.52,-15.77,-5.33,-179.14,80.64,148.72,0.625,0.735,-0.201,-0.169
819169.000000,0.003,0.958,-0.159,0.05,-0.01,0.03,12.89,-15.31,-5.58,-179.14,80.64,148.72,0.625,0.735,-0.201,-0.169
819179.000000,0.002,0.959,-0.156,-0.01,-0.07,-0.03,13.93,-15.54,-5.54,-179.14,80.64,148.72,0.625,0.735,-0.201,-0.169
819189.000000,0.001,0.959,-0.160,-0.01,-0.01,-0.05,13.85,-15.81,-5.96,-179.14,80.64,148.72,0.625,0.735,-0.201,-0.169
819199.000000,0.003,0.960,-0.159,-0.01,0.12,-0.05,13.89,-15.31,-5.88,-179.14,80.64,148.72,0.625,0.735,-0.201,-0.169
819209.000000,0.002,0.958,-0.155,-0.01,0.12,0.03,13.75,-15.50,-5.63,-179.15,80.64,148.72,0.625,0.735,-0.201,-0.169
819219.000000,0.002,0.959,-0.156,-0.03,-0.11,-0.03,13.75,-15.81,-5.63,-179.14,80.64,148.72,0.625,0.735,-0.201,-0.169
819229.000000,0.003,0.958,-0.159,0.03,0.01,0.03,13.67,-15.73,-5.88,-179.15,80.64,148.72,0.625,0.735,-0.201,-0.169
819239.000000,0.003,0.956,-0.159,-0.01,0.12,-0.05,13.35,-15.77,-5.75,-179.15,80.64,148.72,0.625,0.735,-0.201,-0.169
819249.000000,0.002,0.959,-0.158,-0.05,-0.01,0.03,13.85,-15.50,-5.54,-179.15,80.64,148.72,0.625,0.735,-0.201,-0.169
819259.000000,0.003,0.960,-0.156,0.05,0.03,-0.01,13.63,-15.89,-5.79,-179.15,80.64,148.72,0.625,0.735,-0.201,-0.169
819269.000000,0.002,0.960,-0.159,-0.05,-0.05,-0.07,13.43,-15.67,-5.21,-179.15,80.64,148.72,0.625,0.735,-0.201,-0.169
819279.000000,0.003,0.959,-0.163,-0.01,0.07,-0.01,12.60,-15.58,-5.67,-179.15,80.64,148.72,0.625,0.735,-0.201,-0.169
819289.000000,-0.000,0.959,-0.159,0.01,0.03,0.03,12.67,-15.85,-5.79,-179.15,80.64,148.72,0.625,0.735,-0.201,-0.169
819299.000000,0.001,0.959,-0.156,0.05,0.01,-0.01,13.02,-15.54,-6.25,-179.15,80.64,148.72,0.625,0.735,-0.201,-0.169
819309.000000,0.005,0.959,-0.158,-0.11,0.03,-0.03,12.43,-16.00,-5.83,-179.15,80.64,148.72,0.625,0.735,-0.201,-0.169
819319.000000,0.003,0.959,-0.160,-0.03,0.05,-0.03,12.48,-15.96,-5.92,-179.15,80.64,148.72,0.625,0.735,-0.201,-0.169
819329.000000,0.001,0.959,-0.150,0.03,-0.07,-0.09,13.25,-16.08,-5.67,-179.15,80.64,148.72,0.625,0.735,-0.201,-0.169
819339.000000,0.005,0.959,-0.159,-0.01,0.05,-0.01,13.39,-16.42,-5.63,-179.15,80.64,148.72,0.625,0.735,-0.201,-0.169
819349.000000,0.001,0.959,-0.159,0.05,-0.07,-0.03,13.21,-15.63,-5.67,-179.15,80.64,148.72,0.625,0.735,-0.201,-0.169
819359.000000,0.002,0.955,-0.159,-0.03,0.03,0.12,13.21,-15.85,-5.46,-179.15,80.64,148.72,0.625,0.735,-0.201,-0.169
819369.000000,0.002,0.959,-0.159,0.03,0.03,-0.09,13.52,-16.18,-5.75,-179.15,80.64,148.72,0.625,0.735,-0.201,-0.169
819379.000000,-0.002,0.959,-0.156,0.07,-0.09,0.01,13.21,-16.35,-5.83,-179.15,80.64,148.72,0.625,0.735,-0.201,-0.169
819389.000000,0.002,0.958,-0.162,0.01,0.05,-0.01,12.67,-16.54,-5.63,-179.15,80.64,148.72,0.625,0.735,-0.201,-0.169
819399.000000,0.001,0.956,-0.158,0.07,0.05,0.03,12.67,-16.31,-5.71,-179.15,80.64,148.73,0.625,0.735,-0.201,-0.169
819409.000000,0.003,0.956,-0.158,0.01,-0.07,-0.03,12.67,-16.64,-5.67,-179.15,80.64,148.73,0.625,0.735,-0.201,-0.169
819419.000000,0.002,0.958,-0.159,-0.01,0.12,0.01,12.52,-16.64,-5.88,-179.15,80.64,148.73,0.625,0.735,-0.201,-0.169
819429.000000,0.003,0.960,-0.158,-0.07,0.01,0.01,12.52,-16.64,-5.88,-179.15,80.64,148.73,0.625,0.735,-0.201,-0.169
819439.000000,0.003,0.958,-0.159,-0.03,-0.01,-0.01,12.71,-15.58,-5.38,-179.15,80.64,148.72,0.625,0.735,-0.201,-0.169
819449.000000,0.003,0.959,-0.155,0.05,0.01,-0.05,12.67,-15.89,-5.46,-179.15,80.64,148.72,0.625,0.735,-0.201,-0.169
819459.000000,0.007,0.959,-0.160,-0.01,-0.05,-0.07,12.67,-15.58,-5.71,-179.15,80.64,148.72,0.625,0.735,-0.201,-0.169
819469.000000,0.003,0.959,-0.159,0.01,-0.01,-0.05,12.43,-15.67,-5.42,-179.15,80.64,148.72,0.625,0.735,-0.201,-0.169
819479.000000,0.002,0.958,-0.156,-0.09,-0.01,0.06,12.43,-15.67,-5.42,-179.15,80.64,148.72,0.625,0.735,-0.201,-0.169
819489.000000,0.001,0.959,-0.160,-0.05,0.01,-0.07,12.48,-16.00,-5.63,-179.14,80.64,148.72,0.625,0.735,-0.201,-0.169
819499.000000,0.005,0.960,-0.160,-0.03,0.07,-0.03,12.67,-16.04,-5.13,-179.14,80.64,148.72,0.625,0.735,-0.201,-0.169
819509.000000,-0.000,0.959,-0.158,0.03,0.03,0.01,12.75,-16.18,-5.08,-179.14,80.64,148.72,0.625,0.735,-0.201,-0.169
819519.000000,0.003,0.958,-0.156,-0.03,0.09,-0.05,12.67,-16.27,-5.63,-179.14,80.64,148.72,0.625,0.735,-0.201,-0.169
819529.000000,0.003,0.959,-0.158,-0.03,0.03,0.01,12.67,-16.27,-5.63,-179.15,80.64,148.72,0.625,0.735,-0.201,-0.169
819539.000000,0.005,0.959,-0.160,0.01,-0.03,-0.07,12.75,-15.81,-5.75,-179.14,80.64,148.72,0.625,0.735,-0.201,-0.169
819549.000000,0.002,0.959,-0.156,-0.01,-0.01,0.01,12.71,-16.08,-5.83,-179.14,80.64,148.72,0.625,0.735,-0.201,-0.169
819559.000000,0.001,0.956,-0.154,-0.01,0.07,0.05,12.60,-15.67,-5.96,-179.14,80.64,148.72,0.625,0.735,-0.201,-0.169
819569.000000,0.001,0.956,-0.155,-0.01,-0.03,-0.01,12.93,-15.77,-5.88,-179.14,80.64,148.71,0.625,0.735,-0.201,-0.169
819579.000000,0.002,0.958,-0.156,0.05,-0.05,-0.03,12.93,-15.77,-5.88,-179.14,80.64,148.71,0.625,0.735,-0.201,-0.169
819589.000000,0.002,0.956,-0.158,0.05,-0.03,-0.03,12.52,-17.33,-5.50,-179.14,80.64,148.71,0.625,0.735,-0.201,-0.169
819599.000000,0.001,0.962,-0.155,-0.01,0.16,0.01,12.52,-16.88,-5.75,-179.14,80.64,148.71,0.625,0.735,-0.201,-0.169
819609.000000,0.002,0.958,-0.160,0.07,0.12,-0.07,13.02,-16.88,-5.25,-179.14,80.64,148.71,0.625,0.735,-0.201,-0.169
819619.000000,0.002,0.958,-0.156,0.05,0.01,-0.01,12.60,-16.81,-5.75,-179.14,80.64,148.72,0.625,0.735,-0.201,-0.169
819629.000000,0.003,0.955,-0.160,-0.03,0.01,-0.05,12.60,-16.81,-5.75,-179.14,80.64,148.72,0.625,0.735,-0.201,-0.169
819639.000000,0.001,0.955,-0.158,-0.03,0.12,0.01,13.52,-15.81,-5.88,-179.14,80.64,148.72,0.625,0.735,-0.201,-0.169
819649.000000,0.001,0.958,-0.154,-0.07,-0.05,0.01,13.35,-16.27,-5.83,-179.14,80.64,148.72,0.625,0.735,-0.201,-0.169
819659.000000,0.002,0.960,-0.156,-0.07,0.07,-0.05,13.58,-15.96,-5.63,-179.14,80.64,148.71,0.625,0.735,-0.201,-0.169
819669.000000,0.002,0.956,-0.159,-0.01,0.01,-0.03,13.63,-15.77,-5.63,-179.14,80.64,148.71,0.625,0.735,-0.201,-0.169
819679.000000,0.001,0.956,-0.156,-0.07,-0.03,-0.01,13.63,-15.77,-5.63,-179.14,80.64,148.71,0.625,0.735,-0.201,-0.169
819689.000000,0.006,0.958,-0.158,0.01,-0.09,-0.03,12.67,-16.77,-5.71,-179.14,80.64,148.71,0.625,0.735,-0.201,-0.169
819699.000000,0.003,0.959,-0.159,-0.01,0.07,-0.01,12.89,-16.88,-5.46,-179.14,80.64,148.72,0.625,0.735,-0.201,-0.169
819709.000000,0.002,0.958,-0.156,-0.05,-0.01,0.03,12.60,-17.04,-5.83,-179.14,80.64,148.71,0.625,0.735,-0.201,-0.169
819719.000000,0.002,0.958,-0.158,0.03,0.01,-0.05,12.89,-16.92,-6.04,-179.14,80.64,148.71,0.625,0.735,-0.201,-0.169
819729.000000,0.002,0.958,-0.158,0.05,0.14,0.03,12.89,-16.92,-6.04,-179.14,80.64,148.71,0.625,0.735,-0.201,-0.169
819739.000000,0.002,0.958,-0.159,0.01,-0.11,-0.07,13.63,-16.35,-5.42,-179.14,80.64,148.71,0.625,0.735,-0.201,-0.169
819749.000000,0.001,0.962,-0.159,-0.01,-0.03,0.05,13.35,-16.27,-5.79,-179.14,80.64,148.71,0.625,0.735,-0.201,-0.169
819759.000000,0.002,0.958,-0.160,-0.09,-0.05,-0.03,13.35,-16.27,-5.79,-179.14,80.64,148.71,0.625,0.735,-0.201,-0.169
819769.000000,0.005,0.959,-0.159,-0.11,-0.17,0.03,13.35,-16.27,-5.79,-179.14,80.64,148.71,0.625,0.735,-0.201,-0.169
819779.000000,0.002,0.958,-0.158,-0.03,0.12,0.03,13.35,-16.27,-5.79,-179.14,80.64,148.71,0.625,0.735,-0.201,-0.169
819789.000000,0.001,0.960,-0.158,0.01,-0.05,0.01,13.75,-15.77,-5.88,-179.14,80.64,148.71,0.625,0.735,-0.201,-0.169
819799.000000,0.003,0.956,-0.156,-0.01,-0.03,0.01,13.75,-15.77,-5.88,-179.14,80.64,148.71,0.625,0.735,-0.201,-0.169
819809.000000,0.005,0.960,-0.158,-0.05,0.14,-0.03,13.67,-15.85,-6.04,-179.13,80.64,148.71,0.625,0.735,-0.201,-0.169
819819.000000,0.001,0.959,-0.159,0.07,0.09,-0.05,13.43,-15.58,-5.58,-179.13,80.64,148.71,0.625,0.735,-0.201,-0.169
819829.000000,0.001,0.960,-0.155,0.01,-0.13,0.05,13.58,-15.77,-5.67,-179.13,80.64,148.71,0.625,0.735,-0.201,-0.169
819839.000000,0.003,0.960,-0.154,0.05,0.07,0.01,13.58,-15.85,-5.63,-179.13,80.64,148.71,0.625,0.735,-0.201,-0.169
819849.000000,0.001,0.960,-0.158,-0.01,-0.03,0.01,13.39,-15.85,-5.67,-179.14,80.64,148.71,0.625,0.735,-0.201,-0.169
819859.000000,0.001,0.959,-0.159,-0.03,-0.01,0.01,13.29,-16.13,-5.79,-179.14,80.64,148.71,0.625,0.735,-0.201,-0.169
819869.000000,-0.000,0.960,-0.155,-0.03,0.12,-0.01,13.52,-16.18,-5.38,-179.14,80.64,148.71,0.625,0.735,-0.201,-0.169
819879.000000,0.003,0.959,-0.158,0.03,0.03,0.01,13.06,-15.73,-5.75,-179.14,80.64,148.71,0.625,0.735,-0.201,-0.169
819889.000000,0.003,0.959,-0.153,-0.01,0.07,-0.01,14.08,-14.54,-5.54,-179.14,80.64,148.71,0.625,0.735,-0.201,-0.169
819899.000000,0.002,0.958,-0.156,-0.01,0.14,0.03,14.04,-14.89,-5.63,-179.14,80.64,148.72,0.625,0.735,-0.201,-0.169
819909.000000,0.002,0.958,-0.163,0.09,-0.01,0.01,14.04,-14.81,-5.88,-179.14,80.64,148.72,0.625,0.735,-0.201,-0.169
819919.000000,0.003,0.959,-0.163,0.07,-0.03,-0.05,14.27,-14.85,-6.04,-179.14,80.64,148.72,0.625,0.735,-0.201,-0.169
819929.000000,0.002,0.962,-0.162,-0.07,-0.03,-0.11,14.13,-14.77,-5.46,-179.14,80.64,148.71,0.625,0.735,-0.201,-0.169
819939.000000,-0.001,0.959,-0.160,0.03,0.05,0.01,13.29,-15.39,-5.67,-179.14,80.64,148.71,0.625,0.735,-0.201,-0.169
819949.000000,0.002,0.960,-0.155,-0.07,0.05,-0.07,13.52,-14.81,-5.46,-179.14,80.64,148.71,0.625,0.735,-0.201,-0.169
819959.000000,0.005,0.956,-0.159,0.07,0.09,-0.03,13.21,-15.13,-5.75,-179.14,80.64,148.72,0.625,0.735,-0.201,-0.169
819969.000000,0.002,0.959,-0.159,-0.09,0.09,-0.01,13.13,-15.17,-5.50,-179.14,80.64,148.72,0.625,0.735,-0.201,-0.169
819979.000000,0.003,0.958,-0.156,-0.01,-0.03,0.05,13.21,-15.13,-5.33,-179.14,80.64,148.72,0.625,0.735,-0.201,-0.169
819989.000000,0.001,0.959,-0.158,-0.13,-0.01,-0.01,13.67,-16.27,-5.75,-179.14,80.64,148.72,0.625,0.735,-0.201,-0.169
819999.000000,0.003,0.958,-0.156,0.01,0.05,0.03,13.17,-16.46,-5.79,-179.14,80.64,148.72,0.625,0.735,-0.201,-0.169
820009.000000,0.006,0.960,-0.159,-0.01,-0.05,0.03,13.06,-16.88,-5.46,-179.14,80.64,148.72,0.625,0.735,-0.201,-0.169
820019.000000,0.003,0.958,-0.158,0.01,0.09,-0.05,13.67,-16.42,-5.54,-179.14,80.64,148.72,0.625,0.735,-0.201,-0.169
820029.000000,0.002,0.962,-0.155,-0.03,-0.03,0.03,13.35,-16.31,-5.58,-179.14,80.64,148.71,0.625,0.735,-0.201,-0.169
820039.000000,0.001,0.962,-0.159,0.01,-0.15,0.03,13.71,-16.77,-5.75,-179.14,80.64,148.71,0.625,0.735,-0.201,-0.169
820049.000000,0.003,0.956,-0.158,0.03,-0.03,-0.03,13.89,-16.54,-5.50,-179.14,80.64,148.72,0.625,0.735,-0.201,-0.169
820059.000000,0.002,0.960,-0.158,-0.05,0.03,-0.03,13.89,-16.88,-5.88,-179.14,80.64,148.72,0.625,0.735,-0.201,-0.169
820069.000000,0.005,0.958,-0.158,0.09,-0.11,-0.07,13.63,-16.50,-5.96,-179.14,80.64,148.71,0.625,0.735,-0.201,-0.169
820079.000000,0.001,0.959,-0.159,0.01,0.05,0.03,14.13,-16.42,-6.04,-179.14,80.64,148.71,0.625,0.735,-0.201,-0.169
820089.000000,0.005,0.959,-0.158,0.05,-0.01,0.01,14.08,-16.50,-5.79,-179.14,80.64,148.71,0.625,0.735,-0.201,-0.169
820099.000000,0.001,0.956,-0.164,0.01,-0.11,-0.03,14.21,-16.68,-5.96,-179.14,80.64,148.71,0.625,0.735,-0.201,-0.169
820109.000000,0.003,0.959,-0.156,0.05,0.03,0.03,13.85,-16.68,-5.92,-179.14,80.64,148.71,0.625,0.735,-0.201,-0.169
820119.000000,0.001,0.958,-0.159,-0.03,0.12,0.03,13.85,-16.35,-5.79,-179.14,80.64,148.71,0.625,0.735,-0.201,-0.169
820129.000000,0.002,0.958,-0.159,-0.07,0.09,-0.05,13.98,-16.81,-5.83,-179.14,80.64,148.71,0.625,0.735,-0.201,-0.169
820139.000000,0.003,0.958,-0.156,0.03,0.01,-0.07,12.83,-15.46,-5.79,-179.14,80.64,148.71,0.625,0.735,-0.201,-0.169
820149.000000,0.002,0.956,-0.160,-0.03,0.03,-0.01,12.48,-15.73,-5.75,-179.14,80.64,148.71,0.625,0.735,-0.201,-0.169
820159.000000,0.005,0.959,-0.156,-0.07,-0.01,0.06,12.60,-15.63,-5.88,-179.14,80.64,148.71,0.625,0.735,-0.201,-0.169
820169.000000,0.001,0.960,-0.156,0.05,0.07,-0.09,12.52,-15.96,-5.58,-179.14,80.64,148.71,0.625,0.735,-0.201,-0.169
820179.000000,0.003,0.955,-0.154,0.05,0.07,-0.01,12.71,-15.63,-6.00,-179.14,80.64,148.71,0.625,0.735,-0.201,-0.169
820189.000000,0.003,0.962,-0.158,0.07,0.01,0.07,13.85,-16.54,-5.54,-179.14,80.64,148.71,0.625,0.735,-0.201,-0.169
820199.000000,-0.000,0.959,-0.155,0.09,-0.03,-0.03,13.81,-16.73,-5.96,-179.14,80.64,148.71,0.625,0.735,-0.201,-0.169
820209.000000,0.002,0.962,-0.159,0.05,0.03,0.10,13.43,-16.81,-6.04,-179.14,80.64,148.71,0.625,0.735,-0.201,-0.169
820219.000000,0.001,0.958,-0.156,0.05,-0.07,0.01,13.63,-16.96,-6.04,-179.14,80.64,148.71,0.625,0.735,-0.201,-0.169
820229.000000,0.002,0.960,-0.155,-0.03,0.01,-0.03,13.93,-16.64,-6.13,-179.14,80.64,148.71,0.625,0.735,-0.201,-0.169
820239.000000,0.002,0.958,-0.156,0.11,0.12,0.01,13.75,-16.58,-5.92,-179.14,80.64,148.71,0.625,0.735,-0.201,-0.169
820249.000000,0.003,0.960,-0.159,0.05,-0.01,-0.01,13.39,-16.42,-5.71,-179.14,80.64,148.71,0.625,0.735,-0.201,-0.169
820259.000000,0.002,0.959,-0.158,-0.01,-0.01,0.03,13.67,-16.58,-5.46,-179.14,80.64,148.71,0.625,0.735,-0.201,-0.169
820269.000000,0.001,0.956,-0.158,-0.03,-0.01,-0.01,13.39,-16.88,-5.42,-179.14,80.64,148.71,0.625,0.735,-0.201,-0.169
820279.000000,0.006,0.960,-0.159,-0.03,0.01,-0.07,13.58,-16.50,-5.71,-179.14,80.64,148.71,0.625,0.735,-0.201,-0.169
820289.000000,0.001,0.956,-0.163,0.05,0.05,0.01,12.79,-15.77,-5.63,-179.14,80.64,148.71,0.625,0.735,-0.201,-0.169
820299.000000,0.001,0.960,-0.156,0.01,0.03,-0.01,12.71,-16.13,-5.71,-179.13,80.64,148.71,0.625,0.735,-0.201,-0.169
820309.000000,0.001,0.959,-0.156,-0.11,0.05,0.04,12.25,-16.35,-5.79,-179.14,80.64,148.71,0.625,0.735,-0.201,-0.169
820319.000000,0.002,0.958,-0.158,0.01,0.05,-0.03,12.71,-16.18,-5.33,-179.14,80.64,148.71,0.625,0.735,-0.201,-0.169
820329.000000,0.002,0.959,-0.156,0.03,0.05,0.07,12.52,-16.18,-5.71,-179.14,80.64,148.71,0.625,0.735,-0.201,-0.169
820339.000000,0.003,0.959,-0.159,0.05,-0.01,-0.09,12.98,-16.04,-5.63,-179.14,80.64,148.71,0.625,0.735,-0.201,-0.169
820349.000000,0.001,0.960,-0.156,0.03,0.05,0.05,13.02,-16.13,-5.67,-179.14,80.64,148.71,0.625,0.735,-0.201,-0.169
820359.000000,0.003,0.959,-0.158,-0.03,-0.03,-0.05,13.06,-15.96,-5.83,-179.14,80.64,148.71,0.625,0.735,-0.201,-0.169
820369.000000,0.004,0.962,-0.153,-0.05,-0.05,0.03,12.75,-16.13,-5.83,-179.14,80.64,148.71,0.625,0.735,-0.201,-0.169
820379.000000,0.003,0.962,-0.159,0.01,-0.09,-0.01,12.75,-15.96,-5.88,-179.13,80.64,148.71,0.625,0.735,-0.201,-0.169
820389.000000,0.001,0.959,-0.158,0.07,-0.05,0.03,13.48,-16.77,-5.58,-179.13,80.65,148.71,0.625,0.735,-0.201,-0.169
820399.000000,0.001,0.956,-0.158,-0.05,-0.01,-0.01,13.52,-16.58,-5.79,-179.13,80.65,148.71,0.625,0.735,-0.201,-0.169
820409.000000,0.003,0.958,-0.158,-0.05,0.03,-0.03,13.63,-16.54,-5.67,-179.14,80.65,148.71,0.625,0.735,-0.201,-0.169
820419.000000,-0.002,0.963,-0.159,-0.01,-0.07,-0.03,13.48,-16.58,-5.50,-179.14,80.65,148.71,0.625,0.735,-0.201,-0.169
820429.000000,-0.001,0.959,-0.160,0.01,0.09,-0.11,13.17,-16.73,-5.33,-179.14,80.65,148.71,0.625,0.735,-0.201,-0.169
820439.000000,0.002,0.958,-0.162,-0.05,0.07,0.01,13.25,-16.58,-5.75,-179.14,80.65,148.72,0.625,0.735,-0.201,-0.169
820449.000000,0.002,0.959,-0.159,0.05,-0.15,-0.01,12.25,-16.73,-5.58,-179.14,80.65,148.72,0.625,0.735,-0.201,-0.169
820459.000000,0.001,0.956,-0.158,-0.01,-0.11,0.03,12.83,-16.64,-5.88,-179.14,80.65,148.72,0.625,0.735,-0.201,-0.169
820469.000000,0.002,0.960,-0.158,-0.05,0.18,0.01,13.13,-16.68,-5.75,-179.14,80.64,148.71,0.625,0.735,-0.201,-0.169
820479.000000,0.003,0.960,-0.159,-0.01,0.07,-0.07,12.48,-16.92,-5.88,-179.14,80.65,148.72,0.625,0.735,-0.201,-0.169
820489.000000,0.001,0.959,-0.159,-0.03,-0.01,0.03,13.35,-15.81,-5.96,-179.14,80.64,148.72,0.625,0.735,-0.201,-0.169
820499.000000,0.005,0.958,-0.159,0.11,0.07,-0.03,13.21,-15.89,-5.96,-179.14,80.64,148.71,0.625,0.735,-0.201,-0.169
820509.000000,0.005,0.959,-0.156,0.01,0.05,0.08,12.75,-16.27,-5.46,-179.14,80.64,148.71,0.625,0.735,-0.201,-0.169
820519.000000,0.003,0.960,-0.159,-0.01,0.05,-0.05,13.29,-16.23,-5.79,-179.14,80.64,148.71,0.625,0.735,-0.201,-0.169
820529.000000,0.002,0.959,-0.158,0.01,0.14,0.01,13.06,-15.54,-5.63,-179.14,80.64,148.71,0.625,0.735,-0.201,-0.169
820539.000000,0.003,0.958,-0.162,0.07,-0.01,0.05,13.48,-15.35,-5.71,-179.14,80.64,148.71,0.625,0.735,-0.201,-0.169
820549.000000,0.003,0.956,-0.158,-0.07,-0.03,-0.07,13.67,-15.58,-5.92,-179.14,80.64,148.71,0.625,0.735,-0.201,-0.169
820559.000000,0.003,0.959,-0.156,-0.05,-0.03,-0.03,13.58,-15.73,-5.83,-179.14,80.64,148.71,0.625,0.735,-0.201,-0.169
820569.000000,0.003,0.960,-0.164,0.05,-0.11,-0.01,13.67,-15.46,-5.33,-179.14,80.64,148.71,0.625,0.735,-0.201,-0.169
820579.000000,0.005,0.958,-0.159,0.05,0.22,-0.01,13.67,-15.50,-5.92,-179.14,80.64,148.71,0.625,0.735,-0.201,-0.169
820589.000000,0.002,0.956,-0.155,0.03,-0.01,0.05,13.35,-15.08,-5.71,-179.14,80.64,148.71,0.625,0.735,-0.201,-0.169
820599.000000,0.001,0.956,-0.160,-0.03,0.07,0.01,13.25,-15.08,-5.71,-179.14,80.64,148.71,0.625,0.735,-0.201,-0.169
820609.000000,0.003,0.960,-0.156,0.01,0.01,-0.05,13.43,-15.00,-5.92,-179.14,80.64,148.71,0.625,0.735,-0.201,-0.169
820619.000000,0.001,0.956,-0.158,0.05,0.07,-0.03,13.39,-14.93,-5.63,-179.14,80.64,148.71,0.625,0.735,-0.201,-0.169
820629.000000,0.002,0.958,-0.153,0.05,0.03,0.01,13.58,-15.27,-5.79,-179.14,80.64,148.72,0.625,0.735,-0.201,-0.169
820639.000000,0.001,0.960,-0.158,0.03,0.03,0.12,13.02,-15.13,-5.96,-179.14,80.64,148.72,0.625,0.735,-0.201,-0.169
820649.000000,0.001,0.959,-0.159,-0.05,-0.17,-0.01,13.17,-15.17,-5.83,-179.14,80.64,148.72,0.625,0.735,-0.201,-0.169
820659.000000,0.002,0.958,-0.158,0.05,-0.07,0.03,13.52,-15.17,-5.83,-179.14,80.64,148.72,0.625,0.735,-0.201,-0.169
820669.000000,0.003,0.958,-0.158,0.05,0.05,0.05,12.98,-15.13,-5.38,-179.15,80.64,148.72,0.625,0.735,-0.201,-0.169
820679.000000,0.005,0.960,-0.158,0.05,0.14,0.01,12.75,-15.27,-5.88,-179.14,80.64,148.72,0.625,0.735,-0.201,-0.169
820689.000000,0.005,0.959,-0.158,0.03,0.01,0.01,13.17,-15.85,-5.71,-179.14,80.64,148.72,0.625,0.735,-0.201,-0.169
820699.000000,0.003,0.955,-0.158,-0.03,-0.05,-0.01,13.13,-15.89,-5.42,-179.15,80.64,148.72,0.625,0.735,-0.201,-0.169
820709.000000,0.003,0.959,-0.158,-0.01,0.01,-0.03,12.89,-15.73,-5.83,-179.14,80.64,148.72,0.625,0.735,-0.201,-0.169
820719.000000,0.005,0.959,-0.160,-0.03,0.14,-0.03,12.71,-16.13,-5.42,-179.14,80.64,148.72,0.625,0.735,-0.201,-0.169
820729.000000,-0.001,0.956,-0.160,-0.03,-0.01,-0.07,12.56,-16.27,-5.67,-179.14,80.64,148.72,0.625,0.735,-0.201,-0.169
820739.000000,-0.002,0.958,-0.159,-0.09,-0.05,-0.09,13.25,-16.50,-5.50,-179.14,80.64,148.72,0.625,0.735,-0.201,-0.169
820749.000000,0.002,0.962,-0.160,0.03,-0.11,-0.07,13.02,-16.23,-5.75,-179.14,80.64,148.72,0.625,0.735,-0.201,-0.169
820759.000000,0.002,0.962,-0.159,0.05,0.05,0.03,13.29,-16.35,-5.75,-179.14,80.64,148.72,0.625,0.735,-0.201,-0.169
820770.000000,0.003,0.956,-0.160,0.03,-0.05,-0.03,13.29,-16.68,-5.58,-179.14,80.64,148.72,0.625,0.735,-0.201,-0.169
820780.000000,0.002,0.955,-0.158,-0.01,-0.01,0.08,13.35,-16.92,-6.08,-179.14,80.64,148.72,0.625,0.735,-0.201,-0.169
820790.000000,0.003,0.956,-0.158,-0.01,0.09,0.12,13.25,-15.81,-5.75,-179.15,80.64,148.72,0.625,0.735,-0.201,-0.169
820800.000000,0.003,0.959,-0.158,0.05,-0.01,0.01,13.06,-15.81,-5.67,-179.15,80.64,148.72,0.625,0.735,-0.201,-0.169
820810.000000,0.003,0.959,-0.159,0.03,-0.07,-0.11,13.29,-15.85,-6.00,-179.15,80.64,148.72,0.625,0.735,-0.201,-0.169
820820.000000,-0.001,0.958,-0.159,0.03,0.07,-0.01,13.29,-15.81,-5.79,-179.14,80.64,148.72,0.625,0.735,-0.201,-0.169
820830.000000,0.002,0.955,-0.158,-0.07,0.12,0.06,12.93,-15.58,-5.79,-179.14,80.64,148.72,0.625,0.735,-0.201,-0.169
820840.000000,0.003,0.959,-0.158,0.01,-0.09,-0.01,13.85,-15.73,-5.54,-179.14,80.64,148.72,0.625,0.735,-0.201,-0.169
820850.000000,0.005,0.958,-0.153,0.03,-0.01,0.07,13.89,-15.67,-5.50,-179.14,80.64,148.72,0.625,0.735,-0.201,-0.169
820860.000000,0.006,0.960,-0.155,0.09,-0.07,-0.07,13.75,-16.00,-5.83,-179.14,80.64,148.72,0.625,0.735,-0.201,-0.169
820870.000000,0.005,0.958,-0.159,0.03,0.12,0.14,13.52,-15.31,-5.50,-179.14,80.64,148.72,0.625,0.735,-0.201,-0.169
820880.000000,0.001,0.959,-0.156,-0.03,-0.07,-0.07,13.58,-15.96,-5.25,-179.14,80.64,148.71,0.625,0.735,-0.201,-0.169
820890.000000,0.002,0.956,-0.155,0.01,0.16,-0.11,14.04,-16.31,-5.79,-179.14,80.64,148.71,0.625,0.735,-0.201,-0.169
820900.000000,0.002,0.958,-0.164,0.01,0.12,0.03,13.75,-16.31,-5.42,-179.14,80.64,148.71,0.625,0.735,-0.201,-0.169
820910.000000,0.003,0.962,-0.155,-0.05,-0.03,0.01,13.85,-16.58,-5.54,-179.14,80.64,148.71,0.625,0.735,-0.201,-0.169
820920.000000,0.001,0.959,-0.156,-0.07,0.05,-0.05,14.17,-16.42,-5.38,-179.14,80.64,148.71,0.625,0.735,-0.201,-0.169
820930.000000,0.003,0.959,-0.156,0.05,0.12,0.05,13.85,-16.68,-5.67,-179.14,80.64,148.71,0.625,0.735,-0.201,-0.169
820940.000000,0.002,0.959,-0.158,0.11,0.14,0.03,12.75,-15.85,-5.54,-179.13,80.64,148.71,0.625,0.735,-0.201,-0.169
820950.000000,0.001,0.956,-0.160,-0.03,0.01,0.03,13.13,-16.18,-5.71,-179.13,80.64,148.71,0.625,0.735,-0.201,-0.169
820960.000000,0.003,0.960,-0.158,-0.01,0.01,-0.05,12.98,-16.18,-5.88,-179.13,80.64,148.71,0.625,0.735,-0.201,-0.169
820970.000000,0.001,0.959,-0.162,0.01,0.14,-0.01,12.60,-16.13,-5.75,-179.13,80.64,148.71,0.625,0.735,-0.201,-0.169
820980.000000,0.002,0.958,-0.154,-0.01,0.03,-0.03,12.75,-15.81,-5.50,-179.13,80.64,148.71,0.625,0.735,-0.201,-0.169
820990.000000,0.001,0.958,-0.155,-0.05,0.09,0.01,12.48,-15.50,-5.79,-179.13,80.64,148.71,0.625,0.735,-0.201,-0.169
821000.000000,-0.001,0.959,-0.160,0.05,-0.01,-0.03,12.48,-15.54,-5.92,-179.13,80.64,148.71,0.625,0.735,-0.201,-0.169
821010.000000,0.001,0.958,-0.156,0.01,0.07,0.01,12.25,-15.85,-5.67,-179.13,80.64,148.71,0.625,0.735,-0.201,-0.169
821020.000000,0.003,0.959,-0.158,-0.07,-0.05,-0.07,12.52,-15.77,-5.71,-179.14,80.64,148.71,0.625,0.735,-0.201,-0.169
821030.000000,0.005,0.958,-0.159,-0.03,0.05,-0.01,12.56,-15.67,-5.83,-179.14,80.64,148.71,0.625,0.735,-0.201,-0.169
821040.000000,0.001,0.960,-0.159,0.01,-0.09,0.03,13.58,-15.58,-5.71,-179.14,80.64,148.71,0.625,0.735,-0.201,-0.169
821050.000000,0.002,0.960,-0.158,0.05,0.01,-0.05,13.43,-15.39,-5.79,-179.14,80.64,148.71,0.625,0.735,-0.201,-0.169
821060.000000,0.005,0.958,-0.158,0.01,0.07,-0.01,13.17,-15.85,-5.63,-179.14,80.64,148.71,0.625,0.735,-0.201,-0.169
821070.000000,0.002,0.959,-0.158,-0.03,0.09,0.03,13.75,-15.89,-5.46,-179.14,80.64,148.71,0.625,0.735,-0.201,-0.169
821080.000000,0.003,0.958,-0.156,-0.03,-0.05,-0.05,13.43,-15.54,-5.38,-179.14,80.64,148.71,0.625,0.735,-0.201,-0.169
821090.000000,0.002,0.959,-0.159,0.05,0.05,-0.05,12.83,-17.00,-5.75,-179.14,80.64,148.71,0.625,0.735,-0.201,-0.169
821100.000000,0.001,0.959,-0.158,-0.01,0.01,-0.03,13.29,-16.77,-5.96,-179.14,80.64,148.71,0.625,0.735,-0.201,-0.169
821110.000000,0.005,0.958,-0.162,-0.03,0.03,-0.05,12.75,-16.77,-5.79,-179.14,80.64,148.71,0.625,0.735,-0.201,-0.169
821120.000000,0.002,0.962,-0.160,0.05,-0.05,-0.07,12.83,-17.00,-5.54,-179.14,80.64,148.71,0.625,0.735,-0.201,-0.169
821130.000000,0.003,0.955,-0.155,0.03,0.05,-0.03,12.89,-16.54,-5.58,-179.14,80.64,148.71,0.625,0.735,-0.201,-0.169
821140.000000,0.003,0.960,-0.155,-0.01,0.14,-0.01,13.58,-15.89,-6.00,-179.13,80.64,148.71,0.625,0.735,-0.201,-0.169
821150.000000,0.001,0.960,-0.159,-0.05,0.12,-0.01,13.71,-15.89,-5.42,-179.14,80.64,148.71,0.625,0.735,-0.201,-0.169
821160.000000,0.002,0.962,-0.155,-0.11,-0.09,-0.03,13.48,-15.96,-5.08,-179.14,80.64,148.71,0.625,0.735,-0.201,-0.169
821170.000000,0.006,0.960,-0.156,0.11,-0.03,0.11,13.89,-16.18,-5.25,-179.14,80.64,148.71,0.625,0.735,-0.201,-0.169
821180.000000,0.001,0.958,-0.158,0.11,0.03,-0.05,13.85,-15.96,-5.63,-179.14,80.64,148.71,0.625,0.735,-0.201,-0.169
821190.000000,0.003,0.956,-0.158,-0.11,-0.07,-0.01,14.13,-15.89,-5.88,-179.14,80.64,148.71,0.625,0.735,-0.201,-0.169
821200.000000,0.003,0.956,-0.159,0.03,0.12,-0.05,14.04,-15.77,-5.79,-179.14,80.64,148.71,0.625,0.735,-0.201,-0.169
821210.000000,0.005,0.958,-0.163,0.03,0.03,0.01,13.98,-15.46,-6.04,-179.14,80.64,148.71,0.625,0.735,-0.201,-0.169
821220.000000,0.003,0.955,-0.160,0.01,-0.11,0.03,13.98,-15.67,-5.71,-179.13,80.64,148.71,0.625,0.735,-0.201,-0.169
821230.000000,0.002,0.958,-0.158,0.03,0.07,0.01,13.71,-15.77,-5.92,-179.13,80.64,148.71,0.625,0.735,-0.201,-0.169
821240.000000,0.001,0.959,-0.156,0.13,0.18,0.03,14.13,-15.50,-5.58,-179.13,80.64,148.71,0.625,0.735,-0.201,-0.169
821250.000000,0.001,0.960,-0.158,0.13,-0.01,-0.07,14.27,-15.73,-6.04,-179.13,80.64,148.71,0.625,0.735,-0.201,-0.169
821260.000000,0.002,0.955,-0.160,0.01,0.05,-0.01,14.27,-15.73,-5.88,-179.13,80.64,148.71,0.625,0.735,-0.201,-0.169
821270.000000,0.003,0.959,-0.160,-0.01,-0.01,-0.01,14.54,-15.67,-6.08,-179.13,80.64,148.71,0.625,0.735,-0.201,-0.169
821280.000000,0.001,0.956,-0.159,0.11,-0.03,-0.07,14.13,-15.96,-5.75,-179.13,80.64,148.71,0.625,0.735,-0.201,-0.169
821290.000000,-0.000,0.958,-0.155,0.01,-0.05,-0.01,14.13,-15.96,-5.75,-179.13,80.64,148.71,0.625,0.735,-0.201,-0.169
821300.000000,0.002,0.963,-0.158,0.05,0.01,0.03,14.58,-15.73,-5.42,-179.14,80.64,148.71,0.625,0.735,-0.201,-0.169
821310.000000,0.003,0.959,-0.159,-0.01,-0.01,0.05,14.77,-15.63,-5.71,-179.14,80.64,148.71,0.625,0.735,-0.201,-0.169
821320.000000,0.002,0.959,-0.156,0.09,0.01,0.03,14.92,-15.67,-5.29,-179.14,80.64,148.71,0.625,0.735,-0.201,-0.169
821330.000000,0.002,0.959,-0.156,-0.05,0.03,0.08,14.85,-15.46,-5.54,-179.14,80.64,148.71,0.625,0.735,-0.201,-0.169
821340.000000,0.005,0.959,-0.159,-0.03,0.05,-0.09,14.85,-15.46,-5.54,-179.14,80.64,148.72,0.625,0.735,-0.201,-0.169
821350.000000,-0.000,0.956,-0.155,-0.03,0.01,0.12,13.06,-14.93,-5.71,-179.14,80.64,148.71,0.625,0.735,-0.201,-0.169
821360.000000,0.002,0.956,-0.154,-0.01,0.05,-0.03,13.06,-14.81,-5.38,-179.14,80.64,148.71,0.625,0.735,-0.201,-0.169
821370.000000,0.003,0.958,-0.155,-0.11,0.01,-0.01,13.29,-14.67,-5.83,-179.14,80.64,148.72,0.625,0.735,-0.201,-0.169
821380.000000,0.002,0.959,-0.159,0.05,0.03,-0.03,13.52,-14.89,-5.58,-179.14,80.64,148.71,0.625,0.735,-0.201,-0.169
821390.000000,0.001,0.962,-0.156,-0.05,-0.01,0.08,13.52,-14.89,-5.58,-179.14,80.64,148.71,0.625,0.735,-0.201,-0.169
821400.000000,0.002,0.959,-0.154,-0.07,-0.03,0.01,12.67,-15.81,-5.75,-179.14,80.64,148.71,0.625,0.735,-0.201,-0.169
821410.000000,0.001,0.960,-0.158,0.01,0.05,-0.03,12.71,-16.00,-5.58,-179.14,80.64,148.71,0.625,0.735,-0.201,-0.169
821420.000000,-0.002,0.959,-0.159,0.13,-0.03,-0.03,12.79,-16.18,-5.71,-179.14,80.64,148.71,0.625,0.735,-0.201,-0.169
821430.000000,0.003,0.958,-0.159,0.03,-0.03,-0.01,12.75,-15.54,-5.50,-179.14,80.64,148.71,0.625,0.735,-0.201,-0.169
821440.000000,0.001,0.958,-0.158,0.03,0.05,0.07,12.75,-15.54,-5.50,-179.14,80.64,148.71,0.625,0.735,-0.201,-0.169
821450.000000,0.003,0.956,-0.162,-0.01,0.16,0.08,13.81,-16.18,-5.38,-179.14,80.64,148.72,0.625,0.735,-0.201,-0.169
821460.000000,0.005,0.956,-0.159,-0.01,0.07,-0.01,14.13,-16.27,-5.75,-179.14,80.64,148.72,0.625,0.735,-0.201,-0.169
821470.000000,0.003,0.959,-0.158,0.03,-0.03,0.03,13.67,-16.23,-5.71,-179.14,80.64,148.72,0.625,0.735,-0.201,-0.169
821480.000000,0.005,0.959,-0.158,0.03,0.07,-0.01,13.52,-16.18,-5.63,-179.14,80.64,148.72,0.625,0.735,-0.201,-0.169
821490.000000,0.002,0.956,-0.159,0.01,0.16,-0.03,13.52,-16.18,-5.63,-179.14,80.64,148.72,0.625,0.735,-0.201,-0.169
821500.000000,0.001,0.959,-0.155,-0.01,-0.05,-0.09,12.93,-16.35,-5.58,-179.14,80.64,148.72,0.625,0.735,-0.201,-0.169
821510.000000,0.003,0.959,-0.160,-0.07,-0.09,0.03,13.17,-16.13,-5.17,-179.14,80.64,148.72,0.625,0.735,-0.201,-0.169
821520.000000,0.003,0.956,-0.156,0.05,0.12,0.01,13.13,-16.08,-5.79,-179.14,80.64,148.72,0.625,0.735,-0.201,-0.169
821530.000000,0.001,0.960,-0.160,-0.03,0.01,0.05,13.02,-16.31,-5.75,-179.14,80.64,148.72,0.625,0.735,-0.201,-0.169
821540.000000,0.002,0.962,-0.159,0.05,-0.01,-0.05,13.02,-16.31,-5.75,-179.14,80.64,148.72,0.625,0.735,-0.201,-0.169
821550.000000,0.001,0.958,-0.160,-0.05,0.01,-0.03,13.17,-16.04,-6.04,-179.15,80.64,148.72,0.625,0.735,-0.201,-0.169
821560.000000,0.001,0.959,-0.158,-0.03,0.01,-0.01,13.29,-16.27,-5.83,-179.15,80.64,148.72,0.625,0.735,-0.201,-0.169
821570.000000,0.002,0.956,-0.156,0.09,0.01,0.09,13.21,-15.81,-6.13,-179.15,80.64,148.72,0.625,0.735,-0.201,-0.169
821580.000000,0.005,0.960,-0.158,0.03,-0.03,-0.03,13.71,-15.77,-5.67,-179.15,80.64,148.72,0.625,0.735,-0.201,-0.169
821590.000000,0.003,0.956,-0.158,0.07,-0.07,0.01,13.71,-15.77,-5.67,-179.15,80.64,148.72,0.625,0.735,-0.201,-0.169
821600.000000,0.003,0.959,-0.156,0.01,0.03,-0.05,13.25,-15.67,-5.79,-179.14,80.64,148.72,0.625,0.735,-0.201,-0.169
821610.000000,0.002,0.959,-0.160,0.01,-0.07,-0.11,13.25,-15.67,-5.79,-179.14,80.64,148.72,0.625,0.735,-0.201,-0.169
821620.000000,0.002,0.959,-0.162,-0.09,-0.13,-0.03,13.25,-15.67,-5.79,-179.14,80.64,148.72,0.625,0.735,-0.201,-0.169
821630.000000,0.001,0.959,-0.156,-0.03,0.01,-0.07,13.25,-15.67,-5.79,-179.14,80.64,148.72,0.625,0.735,-0.201,-0.169
821640.000000,0.002,0.958,-0.162,0.03,0.09,-0.01,13.25,-15.67,-5.79,-179.14,80.64,148.72,0.625,0.735,-0.201,-0.169
821650.000000,0.003,0.960,-0.159,-0.03,0.09,-0.07,13.21,-15.58,-5.58,-179.15,80.64,148.72,0.625,0.735,-0.201,-0.169
821660.000000,0.001,0.959,-0.162,0.01,0.03,0.01,13.29,-15.63,-5.58,-179.15,80.64,148.72,0.625,0.735,-0.201,-0.169
821670.000000,0.003,0.960,-0.162,-0.07,-0.03,0.01,13.52,-15.54,-5.42,-179.15,80.64,148.72,0.625,0.735,-0.201,-0.169
821680.000000,0.002,0.960,-0.155,-0.03,-0.01,-0.05,13.43,-15.46,-5.67,-179.15,80.64,148.72,0.625,0.735,-0.201,-0.169
821690.000000,0.001,0.962,-0.159,-0.11,0.01,-0.01,13.21,-15.35,-5.96,-179.15,80.64,148.72,0.625,0.735,-0.201,-0.169
821700.000000,0.002,0.959,-0.159,0.05,-0.07,-0.01,12.93,-15.77,-5.92,-179.15,80.64,148.72,0.625,0.735,-0.201,-0.169
821710.000000,0.006,0.959,-0.162,-0.01,0.05,-0.05,12.43,-15.96,-5.79,-179.15,80.64,148.72,0.625,0.735,-0.201,-0.169
821720.000000,0.002,0.959,-0.156,-0.07,-0.01,0.06,12.79,-15.81,-5.58,-179.15,80.64,148.72,0.625,0.735,-0.201,-0.169
821730.000000,0.001,0.958,-0.155,0.01,0.14,-0.01,12.21,-15.89,-5.71,-179.14,80.64,148.72,0.625,0.735,-0.201,-0.169
821740.000000,-0.000,0.959,-0.156,-0.09,0.12,0.04,12.29,-15.81,-5.92,-179.14,80.64,148.72,0.625,0.735,-0.201,-0.169
821750.000000,0.001,0.958,-0.159,-0.03,0.03,0.01,12.56,-16.23,-5.58,-179.14,80.64,148.72,0.625,0.735,-0.201,-0.169
821760.000000,0.003,0.962,-0.158,0.11,-0.03,-0.03,12.56,-15.89,-5.75,-179.15,80.64,148.72,0.625,0.735,-0.201,-0.169
821770.000000,0.003,0.956,-0.156,-0.01,0.01,-0.03,12.56,-16.04,-5.50,-179.15,80.64,148.72,0.625,0.735,-0.201,-0.169
821780.000000,0.001,0.958,-0.159,0.07,-0.05,-0.05,12.43,-16.04,-5.96,-179.15,80.64,148.72,0.625,0.735,-0.201,-0.169
821790.000000,0.001,0.958,-0.156,-0.11,-0.03,0.10,12.29,-16.35,-5.83,-179.15,80.64,148.72,0.625,0.735,-0.201,-0.169
821800.000000,0.002,0.958,-0.158,-0.01,0.05,0.03,13.25,-15.63,-5.92,-179.15,80.64,148.72,0.625,0.735,-0.201,-0.169
821810.000000,0.006,0.959,-0.160,0.07,-0.03,-0.01,13.25,-16.18,-5.63,-179.15,80.64,148.72,0.625,0.735,-0.201,-0.169
821820.000000,0.005,0.959,-0.158,-0.03,0.09,0.03,13.21,-15.77,-6.08,-179.15,80.64,148.72,0.625,0.735,-0.201,-0.169
821830.000000,0.003,0.958,-0.159,0.05,0.05,0.01,12.79,-15.77,-5.63,-179.14,80.64,148.72,0.625,0.735,-0.201,-0.169
821840.000000,0.002,0.958,-0.158,0.01,-0.03,-0.07,13.21,-15.89,-5.79,-179.14,80.64,148.72,0.625,0.735,-0.201,-0.169
821850.000000,-0.000,0.959,-0.158,0.07,0.05,-0.01,13.52,-15.63,-5.88,-179.14,80.64,148.72,0.625,0.735,-0.201,-0.169
821860.000000,0.003,0.959,-0.159,-0.07,0.03,0.03,13.58,-15.67,-6.08,-179.14,80.64,148.72,0.625,0.735,-0.201,-0.169
821870.000000,-0.001,0.956,-0.159,0.07,-0.03,-0.07,13.13,-15.58,-5.50,-179.14,80.64,148.72,0.625,0.735,-0.201,-0.169
821880.000000,0.002,0.959,-0.154,0.07,0.12,0.03,13.63,-16.23,-5.75,-179.14,80.64,148.71,0.625,0.735,-0.201,-0.169
821890.000000,0.001,0.960,-0.159,0.09,0.03,0.03,13.75,-15.81,-5.75,-179.14,80.64,148.72,0.625,0.735,-0.201,-0.169
821900.000000,0.002,0.955,-0.162,-0.03,-0.01,-0.07,13.85,-15.58,-5.88,-179.14,80.64,148.71,0.625,0.735,-0.201,-0.169
821910.000000,0.003,0.958,-0.156,0.07,-0.01,0.09,13.93,-15.81,-5.33,-179.14,80.64,148.72,0.625,0.735,-0.201,-0.169
821920.000000,0.001,0.960,-0.156,0.05,0.05,0.05,13.85,-15.81,-5.83,-179.14,80.64,148.72,0.625,0.735,-0.201,-0.169
821930.000000,-0.000,0.960,-0.152,0.07,-0.01,0.01,13.93,-15.50,-6.17,-179.14,80.64,148.72,0.625,0.735,-0.201,-0.169
821940.000000,0.005,0.960,-0.162,0.01,-0.05,0.03,14.08,-15.73,-5.71,-179.14,80.64,148.72,0.625,0.735,-0.201,-0.169
821950.000000,0.002,0.960,-0.156,0.05,-0.11,-0.01,13.48,-15.35,-5.75,-179.15,80.64,148.72,0.625,0.735,-0.201,-0.169
821960.000000,-0.000,0.956,-0.154,-0.05,0.05,0.06,13.89,-15.58,-5.54,-179.15,80.64,148.72,0.625,0.735,-0.201,-0.169
821970.000000,0.009,0.958,-0.163,-0.03,0.07,0.08,13.39,-15.13,-5.75,-179.15,80.64,148.72,0.625,0.735,-0.201,-0.169
821980.000000,0.005,0.958,-0.162,0.01,0.01,0.03,13.71,-15.17,-5.75,-179.14,80.64,148.72,0.625,0.735,-0.201,-0.169
821990.000000,0.001,0.956,-0.159,0.01,0.03,-0.01,14.27,-15.50,-5.71,-179.14,80.64,148.72,0.625,0.735,-0.201,-0.169
822000.000000,0.002,0.959,-0.156,-0.01,-0.05,-0.01,13.98,-15.39,-5.75,-179.14,80.64,148.71,0.625,0.735,-0.201,-0.169
822010.000000,0.005,0.959,-0.156,-0.01,0.01,0.03,13.85,-15.63,-5.92,-179.14,80.64,148.72,0.625,0.735,-0.201,-0.169
822020.000000,0.002,0.960,-0.162,-0.03,0.09,0.03,13.58,-15.89,-5.88,-179.14,80.64,148.71,0.625,0.735,-0.201,-0.169
822030.000000,0.001,0.959,-0.160,0.01,-0.01,0.01,13.98,-15.67,-5.50,-179.14,80.64,148.71,0.625,0.735,-0.201,-0.169
822040.000000,0.002,0.956,-0.158,-0.03,-0.03,-0.01,13.81,-15.77,-5.79,-179.14,80.64,148.72,0.625,0.735,-0.201,-0.169
822050.000000,-0.001,0.958,-0.159,0.07,-0.03,-0.03,12.79,-15.73,-5.83,-179.14,80.64,148.72,0.625,0.735,-0.201,-0.169
822060.000000,0.001,0.958,-0.158,-0.03,0.12,-0.01,12.93,-15.67,-5.63,-179.14,80.64,148.71,0.625,0.735,-0.201,-0.169
822070.000000,0.002,0.958,-0.158,0.03,0.09,-0.01,12.93,-15.85,-5.83,-179.14,80.64,148.72,0.625,0.735,-0.201,-0.169
822080.000000,0.003,0.960,-0.159,-0.03,-0.07,0.03,12.79,-15.50,-5.67,-179.14,80.64,148.72,0.625,0.735,-0.201,-0.169
822090.000000,0.002,0.959,-0.159,-0.03,0.05,-0.01,13.06,-15.50,-5.75,-179.14,80.64,148.72,0.625,0.735,-0.201,-0.169
822100.000000,0.001,0.956,-0.156,-0.09,-0.03,-0.01,13.25,-15.63,-5.71,-179.14,80.64,148.72,0.625,0.735,-0.201,-0.169
822110.000000,0.006,0.960,-0.162,-0.01,0.07,0.01,12.93,-15.63,-5.38,-179.14,80.64,148.72,0.625,0.735,-0.201,-0.169
822120.000000,-0.000,0.956,-0.158,0.03,0.07,0.05,13.02,-15.67,-5.54,-179.14,80.64,148.72,0.625,0.735,-0.201,-0.169
822130.000000,0.001,0.960,-0.160,-0.01,-0.13,-0.05,13.06,-15.73,-5.50,-179.14,80.64,148.72,0.625,0.735,-0.201,-0.169
822140.000000,0.001,0.958,-0.152,-0.05,0.14,-0.01,13.29,-15.63,-5.50,-179.14,80.64,148.72,0.625,0.735,-0.201,-0.169
822150.000000,0.003,0.962,-0.158,0.07,0.07,-0.05,12.43,-16.35,-5.71,-179.14,80.64,148.72,0.625,0.735,-0.201,-0.169
822160.000000,0.003,0.962,-0.155,0.01,0.14,0.01,12.25,-16.50,-5.75,-179.14,80.64,148.72,0.625,0.735,-0.201,-0.169
822170.000000,0.002,0.956,-0.155,0.03,-0.03,-0.09,12.43,-16.50,-6.04,-179.14,80.64,148.72,0.625,0.735,-0.201,-0.169
822180.000000,0.001,0.959,-0.159,0.01,0.05,0.03,12.25,-16.64,-5.92,-179.14,80.64,148.72,0.625,0.735,-0.201,-0.169
822190.000000,0.003,0.960,-0.158,0.03,0.07,-0.03,12.21,-16.31,-5.75,-179.14,80.64,148.71,0.625,0.735,-0.201,-0.169
822200.000000,0.002,0.959,-0.159,0.03,-0.01,-0.03,13.75,-15.85,-5.88,-179.14,80.64,148.72,0.625,0.735,-0.201,-0.169
822210.000000,0.002,0.958,-0.156,0.03,0.09,-0.05,13.71,-15.58,-5.83,-179.14,80.64,148.72,0.625,0.735,-0.201,-0.169
822220.000000,0.002,0.956,-0.158,-0.01,0.05,0.05,13.35,-16.04,-5.58,-179.14,80.64,148.72,0.625,0.735,-0.201,-0.169
822230.000000,0.001,0.958,-0.159,0.09,-0.01,0.03,13.29,-15.96,-5.88,-179.14,80.64,148.71,0.625,0.735,-0.201,-0.169
822240.000000,-0.000,0.955,-0.155,0.01,-0.07,-0.05,13.63,-16.08,-5.79,-179.14,80.64,148.71,0.625,0.735,-0.201,-0.169
822250.000000,0.005,0.959,-0.155,0.07,-0.05,-0.01,14.08,-14.81,-5.75,-179.14,80.64,148.71,0.625,0.735,-0.201,-0.169
822260.000000,0.003,0.958,-0.160,0.05,0.01,-0.03,13.85,-14.63,-5.79,-179.14,80.64,148.72,0.625,0.735,-0.201,-0.169
822270.000000,0.002,0.956,-0.158,-0.01,-0.17,0.03,14.17,-14.63,-5.46,-179.14,80.64,148.71,0.625,0.735,-0.201,-0.169
822280.000000,0.005,0.963,-0.162,0.03,-0.09,0.05,13.89,-14.63,-5.46,-179.14,80.64,148.71,0.625,0.735,-0.201,-0.169
822290.000000,0.001,0.958,-0.158,-0.07,0.05,-0.05,13.89,-14.93,-5.71,-179.14,80.64,148.72,0.625,0.735,-0.201,-0.169
822300.000000,0.003,0.956,-0.159,0.03,0.07,-0.03,13.06,-15.27,-5.63,-179.14,80.64,148.72,0.625,0.735,-0.201,-0.169
822310.000000,0.002,0.956,-0.162,-0.03,0.07,0.06,13.39,-15.17,-5.71,-179.14,80.64,148.72,0.625,0.735,-0.201,-0.169
822320.000000,0.003,0.960,-0.158,0.01,0.09,-0.05,13.29,-15.35,-5.71,-179.14,80.64,148.72,0.625,0.735,-0.201,-0.169
822330.000000,0.003,0.960,-0.159,0.03,0.01,0.05,12.98,-15.08,-5.54,-179.14,80.64,148.72,0.625,0.735,-0.201,-0.169
822340.000000,0.001,0.959,-0.160,0.01,0.16,0.01,13.02,-15.04,-5.83,-179.14,80.64,148.72,0.625,0.735,-0.201,-0.169
822350.000000,0.002,0.959,-0.156,-0.07,0.01,0.01,13.25,-15.50,-5.88,-179.14,80.64,148.71,0.625,0.735,-0.201,-0.169
822360.000000,0.001,0.959,-0.160,0.03,0.03,-0.03,13.35,-15.63,-5.58,-179.14,80.64,148.71,0.625,0.735,-0.201,-0.169
822370.000000,-0.000,0.956,-0.158,0.01,0.01,0.03,13.52,-15.27,-5.58,-179.14,80.64,148.71,0.625,0.735,-0.201,-0.169
822380.000000,0.002,0.960,-0.158,-0.01,0.12,-0.09,13.29,-15.39,-6.00,-179.14,80.64,148.71,0.625,0.735,-0.201,-0.169
822390.000000,0.002,0.955,-0.159,-0.01,0.12,0.01,13.63,-15.31,-5.83,-179.14,80.64,148.71,0.625,0.735,-0.201,-0.169
822400.000000,0.002,0.958,-0.156,-0.03,0.14,-0.01,13.75,-16.64,-5.79,-179.14,80.64,148.71,0.625,0.735,-0.201,-0.169
822410.000000,0.002,0.960,-0.162,0.17,-0.07,-0.01,13.81,-16.27,-5.67,-179.14,80.64,148.72,0.625,0.735,-0.201,-0.169
822420.000000,0.002,0.960,-0.154,0.03,-0.11,-0.03,13.52,-16.50,-5.58,-179.14,80.64,148.72,0.625,0.735,-0.201,-0.169
822430.000000,0.003,0.959,-0.158,-0.01,0.03,0.05,13.63,-16.50,-6.17,-179.14,80.64,148.72,0.625,0.735,-0.201,-0.169
822440.000000,0.003,0.958,-0.159,0.03,0.05,0.05,13.63,-16.64,-5.75,-179.14,80.64,148.71,0.625,0.735,-0.201,-0.169
822450.000000,0.003,0.958,-0.159,-0.11,0.12,-0.07,13.75,-16.00,-5.71,-179.14,80.64,148.71,0.625,0.735,-0.201,-0.169
822460.000000,0.002,0.958,-0.159,0.05,0.01,-0.03,13.75,-15.89,-5.75,-179.14,80.65,148.71,0.625,0.735,-0.201,-0.169
822470.000000,-0.000,0.958,-0.158,0.03,-0.09,-0.03,13.89,-16.23,-5.29,-179.14,80.64,148.71,0.625,0.735,-0.201,-0.169
822480.000000,0.003,0.956,-0.159,-0.03,0.05,-0.01,13.35,-16.27,-5.38,-179.14,80.64,148.71,0.625,0.735,-0.201,-0.169
822490.000000,0.003,0.960,-0.156,-0.05,0.07,0.01,13.67,-16.13,-5.58,-179.14,80.64,148.71,0.625,0.735,-0.201,-0.169
822500.000000,0.003,0.958,-0.156,-0.01,-0.07,0.03,13.71,-16.04,-5.79,-179.14,80.64,148.71,0.625,0.735,-0.201,-0.169
822510.000000,0.002,0.958,-0.156,-0.01,-0.03,0.01,13.75,-15.63,-5.88,-179.14,80.64,148.71,0.625,0.735,-0.201,-0.169
822520.000000,0.002,0.958,-0.160,0.05,0.09,-0.01,14.17,-15.96,-6.13,-179.14,80.64,148.71,0.625,0.735,-0.201,-0.169
822530.000000,0.005,0.959,-0.156,0.07,-0.11,-0.05,14.13,-15.81,-5.75,-179.14,80.64,148.71,0.625,0.735,-0.201,-0.169
822540.000000,0.001,0.959,-0.158,-0.03,-0.01,0.10,13.81,-15.85,-5.42,-179.14,80.64,148.71,0.625,0.735,-0.201,-0.169
822550.000000,0.002,0.959,-0.155,-0.09,0.03,-0.03,12.98,-15.13,-5.79,-179.14,80.64,148.71,0.625,0.735,-0.201,-0.169
822560.000000,0.003,0.960,-0.159,0.01,0.01,-0.03,12.71,-14.93,-5.79,-179.14,80.64,148.71,0.625,0.735,-0.201,-0.169
822570.000000,0.002,0.960,-0.160,0.07,-0.03,-0.03,12.60,-14.71,-5.79,-179.14,80.64,148.71,0.625,0.735,-0.201,-0.169
822580.000000,0.002,0.959,-0.155,0.03,0.09,-0.03,13.17,-14.89,-6.17,-179.14,80.64,148.71,0.625,0.735,-0.201,-0.169
822590.000000,0.002,0.958,-0.156,0.11,0.01,0.07,12.60,-14.85,-6.04,-179.14,80.64,148.71,0.625,0.735,-0.201,-0.169
822600.000000,0.002,0.960,-0.159,-0.05,-0.01,0.03,14.39,-16.04,-5.75,-179.14,80.64,148.71,0.625,0.735,-0.201,-0.169
822610.000000,0.003,0.959,-0.159,0.03,0.03,-0.03,14.13,-15.89,-6.25,-179.14,80.64,148.71,0.625,0.735,-0.201,-0.169
822620.000000,-0.002,0.956,-0.158,0.03,0.12,0.01,13.67,-16.13,-5.71,-179.14,80.64,148.71,0.625,0.735,-0.201,-0.169
822630.000000,0.001,0.959,-0.158,0.01,0.09,0.03,14.08,-16.23,-5.63,-179.14,80.64,148.71,0.625,0.735,-0.201,-0.169
822640.000000,0.001,0.959,-0.156,-0.03,0.01,0.03,14.21,-16.35,-6.00,-179.14,80.64,148.71,0.625,0.735,-0.201,-0.169
822650.000000,0.001,0.960,-0.155,-0.01,-0.03,0.03,13.98,-15.85,-5.79,-179.14,80.64,148.72,0.625,0.735,-0.201,-0.169
822660.000000,0.001,0.959,-0.158,0.03,-0.19,-0.01,14.08,-15.73,-5.83,-179.14,80.64,148.72,0.625,0.735,-0.201,-0.169
822670.000000,0.002,0.960,-0.156,-0.03,0.07,-0.07,13.98,-16.13,-5.96,-179.14,80.64,148.72,0.625,0.735,-0.201,-0.169
822680.000000,0.001,0.960,-0.159,0.01,-0.05,0.01,14.50,-16.04,-6.04,-179.14,80.64,148.72,0.625,0.735,-0.201,-0.169
822690.000000,0.003,0.958,-0.159,0.03,-0.05,0.10,14.04,-16.00,-5.96,-179.14,80.64,148.72,0.625,0.735,-0.201,-0.169
822700.000000,0.005,0.960,-0.160,-0.07,0.14,0.04,14.85,-15.67,-5.67,-179.14,80.64,148.72,0.625,0.735,-0.201,-0.169
822710.000000,0.003,0.958,-0.163,0.11,0.05,0.03,14.92,-15.81,-5.83,-179.14,80.64,148.72,0.625,0.735,-0.201,-0.169
822720.000000,0.002,0.960,-0.155,-0.03,0.03,0.01,14.58,-15.73,-5.96,-179.14,80.64,148.72,0.625,0.735,-0.201,-0.169
822730.000000,0.003,0.962,-0.159,0.09,0.05,-0.05,14.21,-16.42,-6.13,-179.14,80.64,148.72,0.625,0.735,-0.201,-0.169
822740.000000,0.002,0.956,-0.160,-0.01,0.14,0.05,14.58,-15.54,-5.67,-179.14,80.64,148.72,0.625,0.735,-0.201,-0.169
822750.000000,0.001,0.958,-0.159,-0.07,-0.01,-0.03,14.35,-15.67,-5.79,-179.14,80.64,148.72,0.625,0.735,-0.201,-0.169
822760.000000,0.002,0.958,-0.158,0.03,-0.11,0.01,13.98,-15.67,-5.83,-179.14,80.64,148.72,0.625,0.735,-0.201,-0.169
822770.000000,0.005,0.959,-0.159,-0.05,-0.01,-0.07,14.27,-15.89,-5.75,-179.14,80.64,148.72,0.625,0.735,-0.201,-0.169
822780.000000,0.002,0.962,-0.160,0.01,-0.01,0.08,14.13,-16.08,-5.50,-179.14,80.64,148.72,0.625,0.735,-0.201,-0.169
822790.000000,0.003,0.960,-0.159,-0.01,-0.01,-0.03,14.04,-16.23,-5.38,-179.14,80.64,148.72,0.625,0.735,-0.201,-0.169
822800.000000,0.003,0.956,-0.158,-0.05,0.01,0.01,13.71,-15.63,-5.79,-179.14,80.64,148.72,0.625,0.735,-0.201,-0.169
822810.000000,0.001,0.959,-0.160,0.09,-0.03,-0.01,13.75,-15.46,-5.67,-179.14,80.64,148.72,0.625,0.735,-0.201,-0.169
822820.000000,0.005,0.956,-0.158,0.07,0.01,0.01,14.04,-15.31,-5.58,-179.14,80.64,148.71,0.625,0.735,-0.201,-0.169
822830.000000,0.002,0.959,-0.158,-0.01,0.16,-0.03,13.71,-15.46,-5.50,-179.14,80.64,148.72,0.625,0.735,-0.201,-0.169
822840.000000,0.001,0.960,-0.156,0.07,0.01,0.01,13.52,-15.39,-5.38,-179.14,80.64,148.71,0.625,0.735,-0.201,-0.169
822850.000000,0.002,0.959,-0.156,-0.01,-0.03,-0.01,13.81,-15.81,-5.88,-179.14,80.64,148.72,0.625,0.735,-0.201,-0.169
822860.000000,0.003,0.958,-0.156,-0.03,-0.03,0.01,13.35,-16.04,-5.67,-179.14,80.64,148.72,0.625,0.735,-0.201,-0.169
822870.000000,0.002,0.959,-0.158,-0.05,0.01,-0.05,13.89,-15.63,-5.83,-179.14,80.64,148.72,0.625,0.735,-0.201,-0.169
822880.000000,0.002,0.958,-0.158,-0.01,0.12,0.05,13.63,-15.77,-5.79,-179.14,80.64,148.72,0.625,0.735,-0.201,-0.169
822890.000000,0.001,0.956,-0.162,0.07,-0.03,-0.05,13.75,-15.67,-5.79,-179.14,80.64,148.72,0.625,0.735,-0.201,-0.169
822900.000000,0.003,0.959,-0.160,-0.03,-0.07,-0.01,13.85,-15.77,-5.75,-179.14,80.64,148.72,0.625,0.735,-0.201,-0.169
822910.000000,-0.001,0.958,-0.159,0.01,-0.01,0.01,13.81,-15.96,-5.63,-179.14,80.64,148.71,0.625,0.735,-0.201,-0.169
822920.000000,0.001,0.962,-0.159,-0.07,-0.01,-0.05,13.98,-16.23,-5.63,-179.14,80.64,148.71,0.625,0.735,-0.201,-0.169
822930.000000,0.005,0.958,-0.156,0.03,-0.09,0.03,13.67,-15.96,-5.96,-179.14,80.64,148.71,0.625,0.735,-0.201,-0.169
822940.000000,-0.000,0.959,-0.158,-0.01,-0.07,0.01,13.71,-16.23,-5.67,-179.14,80.64,148.71,0.625,0.735,-0.201,-0.169
822950.000000,0.001,0.959,-0.156,0.09,-0.03,0.05,13.89,-15.04,-5.75,-179.14,80.64,148.71,0.625,0.735,-0.201,-0.169
822960.000000,0.001,0.960,-0.162,-0.01,0.05,-0.09,14.08,-15.27,-5.29,-179.14,80.64,148.72,0.625,0.735,-0.201,-0.169
822970.000000,0.002,0.959,-0.156,-0.01,-0.01,-0.11,13.35,-15.13,-5.71,-179.14,80.64,148.71,0.625,0.735,-0.201,-0.169
822980.000000,0.002,0.959,-0.162,0.01,0.16,0.05,13.98,-15.04,-5.50,-179.14,80.64,148.71,0.625,0.735,-0.201,-0.169
822990.000000,0.003,0.959,-0.158,0.01,0.03,0.03,13.71,-15.31,-5.50,-179.14,80.64,148.71,0.625,0.735,-0.201,-0.169
823000.000000,0.003,0.956,-0.155,-0.01,0.01,-0.01,13.58,-16.18,-5.83,-179.14,80.64,148.72,0.625,0.735,-0.201,-0.169
823010.000000,0.002,0.958,-0.156,0.05,0.09,-0.13,14.08,-16.42,-5.42,-179.14,80.64,148.71,0.625,0.735,-0.201,-0.169
823020.000000,0.003,0.960,-0.155,-0.01,0.05,0.01,13.67,-16.31,-5.71,-179.14,80.64,148.72,0.625,0.735,-0.201,-0.169
823030.000000,0.003,0.960,-0.156,0.01,0.07,-0.01,13.81,-16.50,-5.42,-179.14,80.64,148.72,0.625,0.735,-0.201,-0.169
823040.000000,0.003,0.955,-0.158,0.01,-0.05,-0.05,14.08,-16.46,-5.38,-179.14,80.64,148.71,0.625,0.735,-0.201,-0.169
823050.000000,0.001,0.959,-0.159,0.05,0.16,0.03,13.43,-15.23,-5.46,-179.14,80.64,148.71,0.625,0.735,-0.201,-0.169
823060.000000,0.003,0.959,-0.160,-0.03,0.14,0.03,13.43,-15.31,-5.50,-179.14,80.64,148.71,0.625,0.735,-0.201,-0.169
823070.000000,0.002,0.958,-0.158,0.07,0.09,-0.07,13.35,-15.39,-5.83,-179.14,80.64,148.72,0.625,0.735,-0.201,-0.169
823080.000000,0.002,0.962,-0.160,-0.03,-0.01,0.05,13.39,-15.50,-5.63,-179.14,80.64,148.71,0.625,0.735,-0.201,-0.169
823090.000000,0.002,0.960,-0.158,0.05,-0.01,-0.01,13.17,-15.63,-5.79,-179.14,80.64,148.71,0.625,0.735,-0.201,-0.169
823100.000000,0.001,0.958,-0.156,0.03,-0.05,0.01,14.13,-15.23,-5.58,-179.14,80.64,148.71,0.625,0.735,-0.201,-0.169
823110.000000,0.005,0.959,-0.162,0.01,-0.03,-0.07,14.63,-15.54,-6.00,-179.14,80.64,148.71,0.625,0.735,-0.201,-0.169
823120.000000,0.003,0.960,-0.158,0.01,-0.01,-0.03,14.17,-15.27,-6.25,-179.14,80.64,148.71,0.625,0.735,-0.201,-0.169
823130.000000,0.002,0.963,-0.158,-0.01,-0.17,-0.03,14.08,-15.04,-5.79,-179.13,80.64,148.71,0.625,0.735,-0.201,-0.169
823140.000000,0.003,0.959,-0.158,-0.05,0.05,-0.01,14.63,-15.54,-5.63,-179.13,80.64,148.71,0.625,0.735,-0.201,-0.169
823150.000000,0.005,0.955,-0.160,0.07,0.09,-0.07,14.63,-15.54,-5.63,-179.14,80.64,148.71,0.625,0.735,-0.201,-0.169
823160.000000,0.003,0.959,-0.155,0.03,-0.01,0.05,14.27,-15.31,-6.04,-179.14,80.64,148.71,0.625,0.735,-0.201,-0.169
823170.000000,0.002,0.958,-0.159,-0.05,0.03,-0.05,13.85,-15.35,-5.71,-179.14,80.64,148.71,0.625,0.735,-0.201,-0.169
823180.000000,0.001,0.958,-0.156,0.03,0.03,-0.07,13.81,-15.31,-5.50,-179.14,80.64,148.71,0.625,0.735,-0.201,-0.169
823190.000000,0.002,0.959,-0.156,0.03,-0.09,-0.05,13.93,-15.35,-5.75,-179.14,80.64,148.71,0.625,0.735,-0.201,-0.169
823200.000000,0.003,0.959,-0.158,-0.03,0.09,0.06,13.93,-15.35,-5.75,-179.13,80.64,148.71,0.625,0.735,-0.201,-0.169
823210.000000,0.003,0.959,-0.155,0.01,0.07,0.05,14.92,-15.54,-5.83,-179.13,80.64,148.71,0.625,0.735,-0.201,-0.169
823220.000000,0.002,0.959,-0.159,0.01,-0.03,-0.01,14.77,-15.58,-5.79,-179.14,80.64,148.71,0.625,0.735,-0.201,-0.169
823230.000000,0.002,0.960,-0.158,-0.07,-0.07,-0.05,14.68,-15.77,-5.67,-179.14,80.64,148.71,0.625,0.735,-0.201,-0.169
823240.000000,0.003,0.960,-0.164,-0.07,0.07,0.01,14.73,-15.58,-5.33,-179.14,80.64,148.71,0.625,0.735,-0.201,-0.169
823250.000000,0.004,0.962,-0.154,0.03,-0.11,0.07,14.73,-15.58,-5.33,-179.14,80.64,148.71,0.625,0.735,-0.201,-0.169
823260.000000,0.002,0.960,-0.158,-0.07,-0.07,-0.03,13.48,-15.54,-6.00,-179.14,80.64,148.71,0.625,0.735,-0.201,-0.169
823270.000000,0.003,0.958,-0.160,0.07,0.09,-0.03,13.63,-15.81,-5.38,-179.14,80.64,148.71,0.625,0.735,-0.201,-0.169
823280.000000,0.003,0.958,-0.159,-0.07,0.14,-0.07,13.85,-15.50,-5.58,-179.14,80.64,148.71,0.625,0.735,-0.201,-0.169
823290.000000,0.003,0.959,-0.160,0.01,0.07,0.05,13.85,-15.67,-5.71,-179.14,80.64,148.71,0.625,0.735,-0.201,-0.169
823300.000000,0.001,0.960,-0.154,0.01,0.03,-0.07,13.85,-15.67,-5.71,-179.14,80.64,148.71,0.625,0.735,-0.201,-0.169
823310.000000,0.006,0.958,-0.160,0.01,0.03,0.05,14.35,-15.54,-5.38,-179.13,80.64,148.71,0.625,0.735,-0.201,-0.169
823320.000000,0.003,0.956,-0.158,0.01,-0.15,-0.01,13.52,-15.67,-5.63,-179.14,80.64,148.71,0.625,0.735,-0.201,-0.169
823330.000000,0.003,0.958,-0.160,-0.05,0.12,-0.05,14.08,-15.23,-5.71,-179.13,80.64,148.71,0.625,0.735,-0.201,-0.169
823340.000000,0.002,0.955,-0.159,0.03,0.16,0.05,13.98,-15.31,-6.00,-179.13,80.64,148.71,0.625,0.735,-0.201,-0.169
823350.000000,0.002,0.960,-0.159,0.03,-0.09,0.03,13.98,-15.31,-6.00,-179.14,80.64,148.71,0.625,0.735,-0.201,-0.169
823360.000000,0.003,0.960,-0.159,0.09,0.01,-0.05,13.17,-15.63,-5.88,-179.14,80.64,148.71,0.625,0.735,-0.201,-0.169
823370.000000,0.003,0.959,-0.156,0.01,0.03,0.01,13.29,-15.63,-5.67,-179.14,80.64,148.71,0.625,0.735,-0.201,-0.169
823380.000000,0.003,0.959,-0.156,0.13,0.12,-0.05,13.39,-15.31,-5.75,-179.14,80.64,148.71,0.625,0.735,-0.201,-0.169
823390.000000,0.003,0.959,-0.158,0.05,0.05,-0.03,13.25,-15.67,-5.63,-179.14,80.64,148.71,0.625,0.735,-0.201,-0.169
823400.000000,0.003,0.963,-0.159,-0.05,0.03,-0.01,13.25,-15.67,-5.63,-179.14,80.64,148.71,0.625,0.735,-0.201,-0.169
823410.000000,0.002,0.956,-0.154,0.03,0.01,0.01,13.81,-15.73,-5.46,-179.14,80.64,148.71,0.625,0.735,-0.201,-0.169
823420.000000,0.002,0.958,-0.158,-0.03,-0.05,-0.01,13.39,-16.00,-5.42,-179.14,80.64,148.71,0.625,0.735,-0.201,-0.169
823430.000000,0.003,0.958,-0.159,0.07,0.07,-0.01,13.52,-15.77,-5.50,-179.14,80.64,148.71,0.625,0.735,-0.201,-0.169
823440.000000,0.001,0.958,-0.160,-0.05,0.09,0.06,13.48,-15.50,-5.71,-179.14,80.64,148.71,0.625,0.735,-0.201,-0.169
823450.000000,0.003,0.956,-0.160,0.05,0.07,0.01,13.48,-15.50,-5.71,-179.14,80.64,148.71,0.625,0.735,-0.201,-0.169
823460.000000,0.001,0.955,-0.156,-0.05,-0.07,-0.03,13.85,-14.77,-5.58,-179.14,80.64,148.71,0.625,0.735,-0.201,-0.169
823470.000000,0.001,0.959,-0.155,-0.07,-0.05,0.06,13.85,-14.77,-5.58,-179.14,80.64,148.71,0.625,0.735,-0.201,-0.169
823480.000000,0.003,0.960,-0.156,0.01,0.14,-0.01,13.85,-14.77,-5.58,-179.14,80.64,148.71,0.625,0.735,-0.201,-0.169
823490.000000,0.002,0.959,-0.156,0.03,0.01,0.05,13.85,-14.77,-5.58,-179.14,80.64,148.71,0.625,0.735,-0.201,-0.169
823500.000000,-0.000,0.959,-0.158,-0.03,-0.03,-0.05,13.85,-14.77,-5.58,-179.14,80.64,148.71,0.625,0.735,-0.201,-0.169
823510.000000,-0.000,0.960,-0.156,-0.03,0.01,-0.07,14.08,-15.13,-5.79,-179.14,80.64,148.71,0.625,0.735,-0.201,-0.169
823520.000000,0.007,0.962,-0.159,-0.07,-0.03,-0.03,14.17,-15.17,-5.88,-179.14,80.64,148.71,0.625,0.735,-0.201,-0.169
823530.000000,0.002,0.955,-0.159,0.07,0.01,0.03,13.98,-15.35,-5.75,-179.14,80.64,148.71,0.625,0.735,-0.201,-0.169
823540.000000,0.003,0.959,-0.162,-0.01,-0.01,-0.05,13.93,-15.23,-5.46,-179.14,80.64,148.71,0.625,0.735,-0.201,-0.169
823550.000000,0.002,0.958,-0.155,0.03,-0.03,-0.01,13.85,-15.04,-5.54,-179.14,80.64,148.71,0.625,0.735,-0.201,-0.169
823560.000000,0.003,0.960,-0.160,-0.09,-0.01,0.06,14.17,-15.50,-5.75,-179.14,80.64,148.71,0.625,0.735,-0.201,-0.169
823570.000000,0.003,0.959,-0.156,-0.05,0.12,-0.03,13.71,-14.93,-5.79,-179.14,80.64,148.71,0.625,0.735,-0.201,-0.169
823580.000000,-0.002,0.959,-0.156,-0.01,-0.01,0.01,14.31,-15.31,-5.83,-179.14,80.64,148.71,0.625,0.735,-0.201,-0.169
823590.000000,0.005,0.958,-0.160,-0.01,0.07,0.03,14.54,-15.35,-6.04,-179.14,80.64,148.71,0.625,0.735,-0.201,-0.169
823600.000000,0.002,0.956,-0.156,0.09,0.03,0.01,13.85,-15.27,-6.17,-179.14,80.64,148.71,0.625,0.735,-0.201,-0.169
823610.000000,-0.002,0.959,-0.159,0.11,-0.01,0.03,14.21,-15.73,-5.79,-179.14,80.64,148.71,0.625,0.735,-0.201,-0.169
823620.000000,0.003,0.959,-0.158,-0.01,-0.03,-0.09,14.21,-15.58,-5.75,-179.14,80.64,148.71,0.625,0.735,-0.201,-0.169
823630.000000,-0.000,0.959,-0.159,-0.01,-0.07,0.01,14.43,-15.96,-5.63,-179.14,80.64,148.72,0.625,0.735,-0.201,-0.169
823640.000000,0.001,0.955,-0.155,0.05,0.14,-0.05,14.17,-15.77,-5.67,-179.14,80.64,148.71,0.625,0.735,-0.201,-0.169
823650.000000,-0.000,0.959,-0.156,-0.03,0.03,0.06,14.17,-15.63,-5.83,-179.14,80.64,148.71,0.625,0.735,-0.201,-0.169
823660.000000,0.002,0.958,-0.154,0.05,0.07,-0.03,14.35,-14.43,-5.75,-179.14,80.64,148.72,0.625,0.735,-0.201,-0.169
823670.000000,0.001,0.959,-0.156,0.05,0.07,0.10,14.17,-14.58,-5.63,-179.15,80.64,148.72,0.625,0.735,-0.201,-0.169
823680.000000,0.001,0.958,-0.158,0.07,0.07,-0.03,14.21,-14.43,-5.58,-179.14,80.64,148.72,0.625,0.735,-0.201,-0.169
823690.000000,0.001,0.960,-0.156,0.03,-0.05,0.03,14.27,-14.81,-5.79,-179.15,80.64,148.72,0.625,0.735,-0.201,-0.169
823700.000000,0.003,0.958,-0.156,0.01,-0.03,-0.07,14.39,-14.39,-5.96,-179.15,80.64,148.72,0.625,0.735,-0.201,-0.169
823710.000000,0.001,0.956,-0.160,0.05,0.01,-0.11,14.17,-15.67,-5.67,-179.15,80.64,148.72,0.625,0.735,-0.201,-0.169
823720.000000,0.003,0.958,-0.158,-0.01,0.01,-0.01,14.08,-15.31,-5.63,-179.15,80.64,148.72,0.625,0.735,-0.201,-0.169
823730.000000,-0.000,0.956,-0.156,0.03,0.03,0.07,13.63,-15.63,-5.83,-179.15,80.64,148.72,0.625,0.735,-0.201,-0.169
823740.000000,-0.000,0.963,-0.156,-0.03,0.16,-0.01,14.21,-15.35,-5.63,-179.14,80.64,148.72,0.625,0.735,-0.201,-0.169
823750.000000,0.003,0.958,-0.158,0.03,0.05,-0.07,14.13,-15.04,-5.71,-179.15,80.64,148.72,0.625,0.735,-0.201,-0.169
823760.000000,0.003,0.959,-0.156,-0.07,-0.01,0.03,13.98,-16.18,-5.67,-179.15,80.64,148.72,0.625,0.735,-0.201,-0.169
823770.000000,0.002,0.960,-0.156,-0.05,-0.03,-0.09,14.04,-16.13,-5.79,-179.15,80.64,148.72,0.625,0.735,-0.201,-0.169
823780.000000,0.003,0.960,-0.156,0.15,0.11,0.01,13.98,-16.13,-5.42,-179.15,80.64,148.72,0.625,0.735,-0.201,-0.169
823790.000000,0.003,0.960,-0.158,-0.03,-0.13,-0.03,13.93,-16.58,-5.71,-179.15,80.64,148.72,0.625,0.735,-0.201,-0.169
823801.000000,0.003,0.960,-0.155,-0.05,0.01,-0.01,14.04,-16.35,-5.67,-179.15,80.64,148.72,0.625,0.735,-0.201,-0.169
823810.000000,0.002,0.958,-0.160,-0.05,0.16,0.01,13.29,-15.58,-5.75,-179.15,80.64,148.72,0.625,0.735,-0.201,-0.169
823820.000000,0.001,0.959,-0.158,-0.03,0.07,-0.05,12.93,-15.81,-5.79,-179.15,80.64,148.72,0.625,0.735,-0.201,-0.169
823830.000000,0.002,0.958,-0.160,0.01,-0.03,0.03,13.52,-15.81,-6.00,-179.15,80.64,148.72,0.625,0.735,-0.201,-0.169
823840.000000,0.003,0.960,-0.162,-0.05,0.03,-0.01,13.35,-15.63,-5.92,-179.15,80.64,148.72,0.625,0.735,-0.201,-0.169
823851.000000,0.001,0.956,-0.160,0.05,-0.03,-0.01,13.06,-15.67,-5.83,-179.15,80.64,148.72,0.625,0.735,-0.201,-0.169
823861.000000,0.002,0.956,-0.163,-0.07,0.07,-0.07,14.27,-16.50,-5.58,-179.15,80.64,148.72,0.625,0.735,-0.201,-0.169
823871.000000,0.003,0.958,-0.155,-0.05,-0.13,0.08,14.17,-16.13,-5.58,-179.15,80.64,148.72,0.625,0.735,-0.201,-0.169
823881.000000,0.003,0.958,-0.158,0.05,0.09,-0.05,14.04,-16.08,-6.00,-179.15,80.64,148.72,0.625,0.735,-0.201,-0.169
823891.000000,0.003,0.960,-0.159,0.07,0.07,0.05,14.13,-16.18,-5.67,-179.15,80.64,148.72,0.625,0.735,-0.201,-0.169
823901.000000,0.003,0.960,-0.160,0.01,-0.01,-0.05,14.21,-16.64,-6.13,-179.15,80.64,148.72,0.625,0.735,-0.201,-0.169
823911.000000,0.005,0.962,-0.158,0.07,-0.07,0.03,13.43,-15.89,-5.83,-179.15,80.64,148.72,0.625,0.735,-0.201,-0.169
823921.000000,0.006,0.960,-0.156,-0.09,0.01,-0.01,13.58,-15.85,-5.50,-179.15,80.64,148.72,0.625,0.735,-0.201,-0.169
823931.000000,0.005,0.959,-0.154,0.05,0.07,-0.05,13.52,-16.00,-5.79,-179.15,80.64,148.72,0.625,0.735,-0.201,-0.169
823941.000000,0.002,0.962,-0.159,0.07,0.01,-0.07,13.71,-16.23,-5.67,-179.14,80.64,148.72,0.625,0.735,-0.201,-0.169
823951.000000,-0.000,0.956,-0.156,-0.11,0.12,-0.03,13.43,-16.18,-5.54,-179.14,80.64,148.72,0.625,0.735,-0.201,-0.169
823961.000000,0.002,0.956,-0.158,-0.07,-0.11,-0.05,15.00,-15.46,-5.79,-179.14,80.64,148.72,0.625,0.735,-0.201,-0.169
823971.000000,0.003,0.959,-0.155,0.05,-0.03,0.10,14.58,-15.23,-6.04,-179.14,80.64,148.72,0.625,0.735,-0.201,-0.169
823981.000000,0.003,0.959,-0.156,0.01,-0.07,-0.07,15.08,-15.04,-6.00,-179.14,80.64,148.72,0.625,0.735,-0.201,-0.169
823991.000000,0.003,0.955,-0.163,0.07,-0.07,0.01,14.63,-15.31,-5.75,-179.14,80.64,148.72,0.625,0.735,-0.201,-0.169
824001.000000,0.002,0.959,-0.159,0.09,0.03,0.01,14.50,-15.27,-5.92,-179.14,80.64,148.72,0.625,0.735,-0.201,-0.169
824011.000000,0.002,0.960,-0.160,-0.03,-0.01,-0.03,14.31,-15.04,-5.83,-179.14,80.64,148.72,0.625,0.735,-0.201,-0.169
824021.000000,0.003,0.958,-0.159,-0.05,0.03,0.01,14.21,-14.89,-5.46,-179.14,80.64,148.72,0.625,0.735,-0.201,-0.169
824031.000000,0.002,0.958,-0.156,-0.01,-0.01,-0.01,14.27,-15.13,-5.29,-179.14,80.64,148.72,0.625,0.735,-0.201,-0.169
824041.000000,-0.002,0.958,-0.156,-0.03,0.18,0.10,14.31,-15.17,-5.88,-179.14,80.64,148.72,0.625,0.735,-0.201,-0.169
824051.000000,0.002,0.959,-0.158,0.07,0.01,-0.03,14.17,-15.17,-5.33,-179.14,80.64,148.72,0.625,0.735,-0.201,-0.169
824061.000000,0.003,0.959,-0.163,0.05,0.05,0.05,13.48,-16.31,-5.79,-179.14,80.64,148.72,0.625,0.735,-0.201,-0.169
824071.000000,0.001,0.958,-0.156,-0.01,-0.05,-0.03,13.67,-16.35,-5.42,-179.15,80.64,148.72,0.625,0.735,-0.201,-0.169
824081.000000,0.003,0.959,-0.159,0.01,0.01,-0.01,13.71,-16.27,-5.67,-179.15,80.64,148.72,0.625,0.735,-0.201,-0.169
824091.000000,0.002,0.958,-0.159,-0.03,-0.01,-0.03,13.89,-16.23,-5.67,-179.15,80.64,148.72,0.625,0.735,-0.201,-0.169
824101.000000,0.001,0.959,-0.158,-0.03,-0.01,-0.07,13.85,-16.54,-5.63,-179.15,80.64,148.72,0.625,0.735,-0.201,-0.169
824111.000000,0.005,0.960,-0.158,0.05,-0.01,0.01,14.68,-15.58,-5.88,-179.15,80.64,148.72,0.625,0.735,-0.201,-0.169
824121.000000,0.003,0.955,-0.160,0.13,0.01,0.01,14.81,-15.35,-6.04,-179.15,80.64,148.73,0.625,0.735,-0.201,-0.169
824131.000000,-0.000,0.958,-0.156,-0.03,-0.01,-0.03,14.50,-15.35,-6.13,-179.15,80.64,148.72,0.625,0.735,-0.201,-0.169
824141.000000,0.001,0.962,-0.154,0.03,0.09,-0.07,14.73,-15.58,-5.83,-179.15,80.64,148.72,0.625,0.735,-0.201,-0.169
824151.000000,0.002,0.955,-0.156,0.05,-0.07,0.10,14.39,-15.50,-5.88,-179.15,80.64,148.72,0.625,0.735,-0.201,-0.169
824161.000000,0.005,0.959,-0.159,-0.01,0.12,0.01,15.23,-15.58,-5.50,-179.15,80.64,148.72,0.625,0.735,-0.201,-0.169
824171.000000,0.002,0.958,-0.158,-0.03,-0.05,0.01,14.96,-15.63,-5.71,-179.14,80.64,148.72,0.625,0.735,-0.201,-0.169
824181.000000,0.002,0.958,-0.160,0.03,0.05,-0.07,14.85,-15.63,-5.63,-179.14,80.64,148.72,0.625,0.735,-0.201,-0.169
824191.000000,0.003,0.958,-0.159,0.01,-0.09,-0.05,14.96,-15.58,-5.79,-179.14,80.64,148.72,0.625,0.735,-0.201,-0.169
824201.000000,0.001,0.958,-0.159,0.05,-0.05,0.03,15.08,-15.54,-5.71,-179.14,80.64,148.72,0.625,0.735,-0.201,-0.169
824211.000000,0.002,0.958,-0.159,-0.01,-0.01,-0.07,13.52,-15.39,-5.71,-179.14,80.64,148.72,0.625,0.735,-0.201,-0.169
824221.000000,0.002,0.958,-0.159,-0.03,-0.05,0.01,13.75,-15.50,-5.63,-179.15,80.64,148.72,0.625,0.735,-0.201,-0.169
824231.000000,0.001,0.959,-0.156,0.05,0.05,0.01,13.52,-15.85,-5.63,-179.15,80.64,148.72,0.625,0.735,-0.201,-0.169
824241.000000,0.002,0.959,-0.156,-0.11,-0.01,-0.09,13.43,-15.39,-5.50,-179.15,80.64,148.72,0.625,0.735,-0.201,-0.169
824251.000000,0.002,0.962,-0.153,-0.01,0.14,0.03,13.35,-15.63,-5.46,-179.15,80.64,148.72,0.625,0.735,-0.201,-0.169
824261.000000,0.003,0.960,-0.158,-0.03,-0.03,0.03,13.39,-15.04,-5.54,-179.15,80.64,148.72,0.625,0.735,-0.201,-0.169
824271.000000,0.006,0.960,-0.155,0.01,0.01,-0.11,13.21,-15.23,-5.92,-179.15,80.64,148.72,0.625,0.735,-0.201,-0.169
824281.000000,0.003,0.958,-0.159,-0.01,-0.05,0.05,13.43,-15.58,-5.71,-179.15,80.64,148.72,0.625,0.735,-0.201,-0.169
824291.000000,0.006,0.960,-0.156,0.11,0.05,0.03,13.35,-15.08,-5.58,-179.14,80.64,148.72,0.625,0.735,-0.201,-0.169
824301.000000,0.005,0.959,-0.160,-0.01,-0.01,0.03,13.39,-15.17,-5.71,-179.14,80.64,148.72,0.625,0.735,-0.201,-0.169
824311.000000,0.002,0.959,-0.155,-0.01,0.03,-0.03,13.52,-15.35,-5.96,-179.14,80.64,148.72,0.625,0.735,-0.201,-0.169
824321.000000,-0.000,0.959,-0.155,-0.03,-0.03,0.03,13.58,-15.13,-5.42,-179.14,80.64,148.72,0.625,0.735,-0.201,-0.169
824331.000000,0.001,0.959,-0.160,0.11,0.01,0.03,13.52,-15.04,-5.58,-179.14,80.64,148.71,0.625,0.735,-0.201,-0.169
824341.000000,0.002,0.958,-0.154,-0.01,0.18,0.03,13.71,-15.00,-5.33,-179.14,80.64,148.71,0.625,0.735,-0.201,-0.169
824351.000000,0.003,0.958,-0.162,0.03,-0.11,0.05,13.67,-15.23,-5.42,-179.14,80.64,148.72,0.625,0.735,-0.201,-0.169
824361.000000,0.002,0.956,-0.159,0.01,-0.01,-0.01,14.04,-15.39,-5.63,-179.14,80.64,148.72,0.625,0.735,-0.201,-0.169
824371.000000,0.001,0.956,-0.156,0.07,-0.01,-0.03,13.85,-15.31,-5.50,-179.14,80.64,148.72,0.625,0.735,-0.201,-0.169
824381.000000,0.003,0.962,-0.158,0.13,0.05,-0.01,13.75,-15.31,-5.96,-179.14,80.64,148.72,0.625,0.735,-0.201,-0.169
824391.000000,0.003,0.959,-0.159,-0.01,0.05,0.08,13.71,-15.50,-5.54,-179.14,80.64,148.72,0.625,0.735,-0.201,-0.169
824401.000000,0.002,0.959,-0.160,0.15,0.14,-0.05,13.58,-15.63,-5.50,-179.14,80.64,148.72,0.625,0.735,-0.201,-0.169
824411.000000,0.003,0.958,-0.158,0.03,-0.03,0.01,14.81,-16.18,-5.75,-179.14,80.64,148.71,0.625,0.735,-0.201,-0.169
824421.000000,0.001,0.959,-0.158,-0.07,-0.05,-0.05,14.17,-16.50,-6.08,-179.14,80.64,148.71,0.625,0.735,-0.201,-0.169
824431.000000,0.003,0.956,-0.158,0.01,-0.01,0.03,13.98,-16.46,-5.54,-179.14,80.64,148.71,0.625,0.735,-0.201,-0.169
824441.000000,0.003,0.958,-0.155,0.03,0.12,0.05,13.98,-16.35,-5.96,-179.14,80.64,148.71,0.625,0.735,-0.201,-0.169
824451.000000,0.003,0.960,-0.160,-0.01,-0.03,0.03,14.50,-16.73,-5.71,-179.14,80.64,148.71,0.625,0.735,-0.201,-0.169
824461.000000,0.003,0.960,-0.158,-0.07,0.03,-0.03,14.73,-16.08,-5.79,-179.13,80.64,148.71,0.625,0.735,-0.201,-0.169
824471.000000,0.002,0.956,-0.155,0.05,0.01,0.01,14.58,-16.08,-5.50,-179.13,80.64,148.71,0.625,0.735,-0.201,-0.169
824481.000000,0.001,0.956,-0.155,0.09,0.09,-0.03,14.39,-16.18,-5.79,-179.13,80.64,148.71,0.625,0.735,-0.201,-0.169
824491.000000,0.005,0.958,-0.159,0.03,-0.03,0.05,14.68,-16.23,-5.92,-179.13,80.64,148.71,0.625,0.735,-0.201,-0.169
824501.000000,0.003,0.962,-0.156,0.03,0.14,-0.03,14.35,-15.89,-5.88,-179.13,80.64,148.71,0.625,0.735,-0.201,-0.169
824511.000000,-0.000,0.960,-0.158,-0.01,0.12,0.01,13.93,-16.42,-5.83,-179.13,80.64,148.70,0.625,0.735,-0.201,-0.169
824521.000000,0.001,0.959,-0.158,-0.05,0.01,-0.01,13.63,-16.31,-5.25,-179.13,80.64,148.70,0.625,0.735,-0.201,-0.169
824531.000000,0.002,0.959,-0.154,-0.09,-0.11,-0.07,13.81,-16.42,-5.63,-179.13,80.64,148.70,0.625,0.735,-0.201,-0.169
824541.000000,0.002,0.956,-0.156,0.09,-0.01,-0.01,13.81,-16.27,-5.46,-179.13,80.64,148.70,0.625,0.735,-0.201,-0.169
824551.000000,0.002,0.960,-0.159,0.03,0.09,0.10,13.58,-16.18,-5.13,-179.13,80.64,148.71,0.625,0.735,-0.201,-0.169
824561.000000,0.003,0.960,-0.156,-0.03,0.01,0.01,14.04,-15.54,-5.58,-179.13,80.64,148.71,0.625,0.735,-0.201,-0.169
824571.000000,0.001,0.960,-0.159,-0.07,-0.01,-0.01,13.85,-15.67,-6.04,-179.13,80.64,148.71,0.625,0.735,-0.201,-0.169
824581.000000,-0.000,0.960,-0.160,-0.03,0.01,0.01,13.75,-15.58,-5.71,-179.13,80.64,148.71,0.625,0.735,-0.201,-0.169
824591.000000,0.002,0.956,-0.159,0.05,0.09,-0.05,13.75,-15.73,-5.54,-179.13,80.64,148.71,0.625,0.735,-0.201,-0.169
824601.000000,0.001,0.960,-0.156,0.01,-0.01,-0.13,13.58,-15.73,-5.58,-179.13,80.64,148.71,0.625,0.735,-0.201,-0.169
824611.000000,0.002,0.958,-0.156,0.01,0.01,0.01,13.71,-14.63,-5.88,-179.13,80.64,148.71,0.625,0.735,-0.201,-0.169
824621.000000,0.001,0.958,-0.156,-0.03,-0.05,-0.09,13.29,-14.63,-5.50,-179.13,80.64,148.71,0.625,0.735,-0.201,-0.169
824631.000000,-0.001,0.959,-0.162,-0.11,-0.01,-0.01,13.85,-14.67,-5.58,-179.13,80.64,148.71,0.625,0.735,-0.201,-0.169
824641.000000,0.001,0.959,-0.162,-0.07,-0.07,-0.01,13.06,-15.00,-5.75,-179.13,80.64,148.71,0.625,0.735,-0.201,-0.169
824651.000000,0.001,0.959,-0.160,0.03,-0.07,-0.09,13.29,-14.43,-5.58,-179.14,80.64,148.71,0.625,0.735,-0.201,-0.169
824661.000000,-0.000,0.959,-0.159,0.05,0.07,0.01,13.48,-15.58,-5.79,-179.14,80.64,148.71,0.625,0.735,-0.201,-0.169
824671.000000,0.001,0.956,-0.159,-0.09,-0.01,-0.07,13.48,-15.67,-5.63,-179.14,80.64,148.71,0.625,0.735,-0.201,-0.169
824681.000000,0.003,0.956,-0.160,-0.01,-0.05,-0.01,13.71,-15.58,-5.54,-179.14,80.64,148.71,0.625,0.735,-0.201,-0.169
824691.000000,0.005,0.956,-0.158,0.07,0.03,-0.05,13.35,-15.58,-5.88,-179.14,80.64,148.71,0.625,0.735,-0.201,-0.169
824701.000000,0.005,0.956,-0.155,0.03,0.09,0.12,13.52,-15.31,-5.58,-179.14,80.64,148.71,0.625,0.735,-0.201,-0.169
824711.000000,0.001,0.958,-0.158,0.05,-0.07,-0.03,13.25,-15.81,-5.67,-179.13,80.64,148.71,0.625,0.735,-0.201,-0.169
824721.000000,0.001,0.959,-0.158,0.09,0.05,-0.01,13.35,-15.67,-5.50,-179.13,80.64,148.71,0.625,0.735,-0.201,-0.169
824731.000000,0.002,0.958,-0.154,-0.05,0.03,0.01,12.93,-15.81,-5.50,-179.13,80.64,148.71,0.625,0.735,-0.201,-0.169
824741.000000,0.005,0.959,-0.159,0.09,0.03,-0.05,12.98,-15.89,-5.71,-179.13,80.64,148.71,0.625,0.735,-0.201,-0.169
824751.000000,0.001,0.959,-0.159,0.05,0.20,-0.05,13.43,-15.89,-5.75,-179.13,80.64,148.71,0.625,0.735,-0.201,-0.169
824761.000000,0.002,0.960,-0.156,0.01,0.03,0.01,14.58,-15.54,-5.67,-179.13,80.64,148.71,0.625,0.735,-0.201,-0.169
824771.000000,0.003,0.962,-0.160,-0.09,-0.03,-0.03,13.89,-15.81,-6.00,-179.13,80.64,148.71,0.625,0.735,-0.201,-0.169
824781.000000,0.003,0.959,-0.158,-0.01,-0.01,0.08,13.93,-15.73,-5.79,-179.13,80.64,148.71,0.625,0.735,-0.201,-0.169
824791.000000,0.002,0.958,-0.154,-0.07,0.07,-0.09,14.39,-15.54,-5.71,-179.13,80.64,148.71,0.625,0.735,-0.201,-0.169
824801.000000,0.001,0.958,-0.159,-0.01,-0.07,-0.01,14.39,-15.35,-5.71,-179.13,80.64,148.71,0.625,0.735,-0.201,-0.169
824811.000000,0.002,0.960,-0.158,0.01,0.01,0.03,13.85,-16.35,-5.67,-179.13,80.64,148.71,0.625,0.735,-0.201,-0.169
824821.000000,0.003,0.955,-0.156,-0.05,0.05,-0.03,13.93,-16.23,-6.00,-179.13,80.64,148.71,0.625,0.735,-0.201,-0.169
824831.000000,0.003,0.956,-0.162,-0.03,-0.03,-0.01,13.75,-16.08,-5.79,-179.13,80.64,148.71,0.625,0.735,-0.201,-0.169
824841.000000,0.002,0.960,-0.160,0.01,-0.01,0.01,13.81,-16.13,-5.58,-179.13,80.64,148.71,0.625,0.735,-0.201,-0.169
824851.000000,0.001,0.956,-0.159,0.07,0.09,-0.03,14.35,-16.13,-5.96,-179.13,80.64,148.71,0.625,0.735,-0.201,-0.169
824861.000000,0.003,0.959,-0.162,0.01,-0.15,0.01,13.39,-16.81,-5.67,-179.13,80.64,148.70,0.625,0.735,-0.201,-0.169
824871.000000,0.003,0.959,-0.159,0.05,-0.01,-0.07,13.43,-16.81,-5.50,-179.13,80.64,148.71,0.625,0.735,-0.201,-0.169
824881.000000,0.003,0.952,-0.156,0.03,0.12,0.05,13.71,-17.23,-5.46,-179.13,80.64,148.71,0.625,0.735,-0.201,-0.169
824891.000000,0.001,0.956,-0.154,0.03,-0.05,-0.07,13.63,-16.58,-5.46,-179.13,80.64,148.70,0.625,0.735,-0.201,-0.169
824901.000000,0.003,0.956,-0.162,0.09,0.14,0.03,13.25,-16.73,-5.79,-179.13,80.64,148.70,0.625,0.735,-0.201,-0.169
824911.000000,0.003,0.960,-0.156,0.05,0.12,-0.03,13.58,-15.73,-5.58,-179.13,80.64,148.70,0.625,0.735,-0.201,-0.169
824921.000000,0.002,0.958,-0.162,0.11,-0.01,0.03,13.58,-15.50,-5.83,-179.13,80.64,148.70,0.625,0.735,-0.201,-0.169
824931.000000,0.001,0.958,-0.159,0.01,-0.03,0.12,13.43,-15.81,-5.96,-179.13,80.64,148.70,0.625,0.735,-0.201,-0.169
824941.000000,0.001,0.958,-0.155,-0.03,0.03,-0.01,13.39,-15.46,-5.42,-179.13,80.64,148.70,0.625,0.735,-0.201,-0.169
824951.000000,0.001,0.958,-0.159,0.07,0.07,0.01,13.63,-15.54,-5.38,-179.13,80.64,148.70,0.625,0.735,-0.201,-0.169
824961.000000,0.003,0.958,-0.163,-0.03,-0.03,-0.07,13.25,-15.50,-5.79,-179.13,80.64,148.70,0.625,0.735,-0.201,-0.169
824971.000000,0.001,0.959,-0.162,0.05,-0.01,0.01,13.02,-15.67,-5.96,-179.13,80.64,148.70,0.625,0.735,-0.201,-0.169
824981.000000,0.002,0.960,-0.159,0.01,0.05,-0.03,13.43,-15.67,-5.96,-179.13,80.64,148.71,0.625,0.735,-0.201,-0.169
824991.000000,0.001,0.959,-0.158,-0.01,-0.03,-0.05,13.21,-15.73,-5.75,-179.13,80.64,148.71,0.625,0.735,-0.201,-0.169
825001.000000,-0.000,0.958,-0.155,0.09,0.05,-0.03,12.98,-15.63,-6.00,-179.13,80.64,148.71,0.625,0.735,-0.201,-0.169
825011.000000,-0.001,0.958,-0.162,0.01,-0.11,0.03,12.98,-15.63,-6.00,-179.13,80.64,148.71,0.625,0.735,-0.201,-0.169
825021.000000,0.001,0.959,-0.159,-0.03,0.01,-0.07,13.39,-15.13,-5.63,-179.14,80.64,148.71,0.625,0.735,-0.201,-0.169
825031.000000,0.002,0.959,-0.155,-0.03,-0.03,-0.03,13.43,-15.13,-5.92,-179.14,80.64,148.71,0.625,0.735,-0.201,-0.169
825041.000000,0.001,0.958,-0.159,-0.01,-0.17,0.03,13.25,-15.08,-5.79,-179.14,80.64,148.71,0.625,0.735,-0.201,-0.169
825051.000000,0.002,0.956,-0.159,-0.01,0.18,-0.11,13.25,-15.13,-5.63,-179.14,80.64,148.71,0.625,0.735,-0.201,-0.169
825061.000000,0.001,0.958,-0.156,0.01,0.01,-0.05,13.25,-15.13,-5.63,-179.14,80.64,148.71,0.625,0.735,-0.201,-0.169
825071.000000,0.002,0.959,-0.159,0.01,0.09,-0.03,13.89,-15.67,-5.58,-179.14,80.64,148.71,0.625,0.735,-0.201,-0.169
825081.000000,0.002,0.959,-0.160,-0.01,-0.05,-0.01,13.35,-15.73,-5.75,-179.14,80.64,148.71,0.625,0.735,-0.201,-0.169
825091.000000,0.003,0.960,-0.158,0.01,0.09,0.08,13.81,-15.58,-6.00,-179.14,80.64,148.71,0.625,0.735,-0.201,-0.169
825101.000000,-0.000,0.956,-0.156,-0.07,0.07,0.06,13.48,-15.63,-5.46,-179.14,80.64,148.71,0.625,0.735,-0.201,-0.169
825111.000000,0.002,0.960,-0.160,0.05,0.07,0.01,13.48,-15.63,-5.46,-179.14,80.64,148.71,0.625,0.735,-0.201,-0.169
825121.000000,0.001,0.959,-0.159,-0.01,-0.03,-0.05,14.77,-15.89,-5.42,-179.14,80.64,148.72,0.625,0.735,-0.201,-0.169
825131.000000,0.006,0.958,-0.158,-0.05,0.07,-0.03,14.39,-15.58,-5.75,-179.14,80.64,148.72,0.625,0.735,-0.201,-0.169
825141.000000,0.009,0.958,-0.158,0.03,0.01,-0.03,14.04,-15.50,-5.71,-179.15,80.64,148.72,0.625,0.735,-0.201,-0.169
825151.000000,0.002,0.962,-0.158,-0.05,0.12,0.01,14.54,-15.77,-5.79,-179.15,80.64,148.72,0.625,0.735,-0.201,-0.169
825161.000000,0.002,0.962,-0.159,0.03,0.01,-0.01,14.54,-15.77,-5.79,-179.14,80.64,148.72,0.625,0.735,-0.201,-0.169
825171.000000,0.005,0.959,-0.154,-0.09,-0.03,-0.03,14.73,-15.63,-5.83,-179.14,80.64,148.72,0.625,0.735,-0.201,-0.169
825181.000000,0.002,0.962,-0.159,0.07,0.09,-0.03,14.43,-15.35,-5.58,-179.14,80.64,148.72,0.625,0.735,-0.201,-0.169
825191.000000,0.002,0.955,-0.160,-0.03,-0.01,0.05,14.58,-15.67,-5.71,-179.14,80.64,148.72,0.625,0.735,-0.201,-0.169
825201.000000,0.002,0.960,-0.159,0.01,0.01,-0.05,14.73,-15.50,-5.54,-179.14,80.64,148.72,0.625,0.735,-0.201,-0.169
825211.000000,0.005,0.962,-0.156,0.05,0.03,-0.03,14.73,-15.50,-5.54,-179.14,80.64,148.72,0.625,0.735,-0.201,-0.169
825221.000000,0.003,0.958,-0.156,-0.05,0.05,-0.03,13.85,-16.58,-6.08,-179.14,80.64,148.72,0.625,0.735,-0.201,-0.169
825231.000000,0.005,0.959,-0.155,0.03,0.03,-0.05,13.89,-16.42,-5.79,-179.14,80.64,148.71,0.625,0.735,-0.201,-0.169
825241.000000,0.007,0.960,-0.158,0.01,-0.05,-0.03,13.75,-16.58,-5.50,-179.14,80.64,148.71,0.625,0.735,-0.201,-0.169
825251.000000,0.001,0.958,-0.155,0.03,0.16,0.03,13.75,-16.35,-5.67,-179.14,80.64,148.71,0.625,0.735,-0.201,-0.169
825261.000000,0.002,0.958,-0.159,0.03,-0.03,-0.11,13.75,-16.35,-5.67,-179.13,80.64,148.71,0.625,0.735,-0.201,-0.169
825271.000000,0.003,0.960,-0.158,0.07,-0.07,-0.01,13.63,-15.63,-5.92,-179.13,80.64,148.71,0.625,0.735,-0.201,-0.169
825281.000000,0.002,0.959,-0.159,-0.01,0.07,-0.03,13.81,-15.54,-5.50,-179.14,80.64,148.71,0.625,0.735,-0.201,-0.169
825291.000000,0.001,0.960,-0.158,-0.03,0.01,-0.11,13.67,-15.81,-5.58,-179.13,80.64,148.71,0.625,0.735,-0.201,-0.169
825301.000000,0.003,0.959,-0.153,-0.03,0.03,0.03,13.75,-15.81,-5.63,-179.14,80.64,148.71,0.625,0.735,-0.201,-0.169
825311.000000,0.006,0.956,-0.156,0.01,0.03,-0.01,13.75,-15.81,-5.63,-179.14,80.64,148.71,0.625,0.735,-0.201,-0.169
825321.000000,0.001,0.958,-0.160,-0.01,0.03,-0.03,14.50,-15.46,-5.75,-179.14,80.64,148.72,0.625,0.735,-0.201,-0.169
825331.000000,0.003,0.962,-0.156,-0.03,-0.07,-0.01,14.50,-15.46,-5.75,-179.14,80.64,148.71,0.625,0.735,-0.201,-0.169
825341.000000,0.005,0.956,-0.159,-0.03,0.03,-0.05,14.50,-15.46,-5.75,-179.14,80.64,148.71,0.625,0.735,-0.201,-0.169
825351.000000,0.003,0.956,-0.154,0.01,-0.07,0.01,14.50,-15.46,-5.75,-179.13,80.64,148.71,0.625,0.735,-0.201,-0.169
825361.000000,0.006,0.959,-0.158,0.01,0.01,-0.03,14.50,-15.46,-5.75,-179.13,80.64,148.71,0.625,0.735,-0.201,-0.169
825371.000000,0.002,0.959,-0.154,-0.05,-0.09,0.03,13.17,-16.31,-5.75,-179.13,80.64,148.71,0.625,0.735,-0.201,-0.169
825381.000000,0.001,0.958,-0.152,0.05,-0.15,0.03,13.06,-16.35,-6.04,-179.13,80.64,148.71,0.625,0.735,-0.201,-0.169
825391.000000,0.003,0.962,-0.163,-0.03,0.07,-0.03,13.43,-16.23,-5.88,-179.13,80.64,148.71,0.625,0.735,-0.201,-0.169
825401.000000,0.001,0.959,-0.159,0.03,0.07,-0.03,13.43,-16.42,-6.17,-179.13,80.64,148.71,0.625,0.735,-0.201,-0.169
825411.000000,0.003,0.962,-0.159,0.11,0.09,0.03,13.29,-16.64,-5.92,-179.13,80.64,148.71,0.625,0.735,-0.201,-0.169
825421.000000,0.001,0.959,-0.160,0.07,-0.03,0.01,13.35,-15.54,-5.88,-179.13,80.64,148.71,0.625,0.735,-0.201,-0.169
825431.000000,0.003,0.959,-0.156,-0.01,-0.05,0.01,12.83,-15.67,-5.88,-179.13,80.64,148.71,0.625,0.735,-0.201,-0.169
825441.000000,0.003,0.960,-0.164,0.05,0.01,0.01,13.25,-15.73,-5.83,-179.13,80.64,148.70,0.625,0.735,-0.201,-0.169
825451.000000,0.001,0.959,-0.159,0.03,0.01,-0.03,13.06,-15.67,-5.71,-179.13,80.64,148.71,0.625,0.735,-0.201,-0.169
825461.000000,0.005,0.959,-0.158,-0.01,0.03,0.08,13.43,-15.73,-5.92,-179.13,80.64,148.71,0.625,0.735,-0.201,-0.169
825471.000000,0.005,0.962,-0.155,0.03,-0.05,-0.05,13.85,-15.00,-5.83,-179.13,80.64,148.71,0.625,0.735,-0.201,-0.169
825481.000000,0.002,0.956,-0.151,0.05,0.14,-0.01,13.71,-15.13,-5.83,-179.13,80.64,148.70,0.625,0.735,-0.201,-0.169
825491.000000,0.003,0.956,-0.155,-0.01,-0.01,0.10,13.48,-15.04,-5.67,-179.13,80.64,148.70,0.625,0.735,-0.201,-0.169
825501.000000,0.002,0.958,-0.159,0.05,0.05,-0.03,13.63,-15.13,-5.83,-179.13,80.64,148.70,0.625,0.735,-0.201,-0.169
825511.000000,0.005,0.960,-0.155,0.11,0.12,-0.01,13.52,-14.89,-5.92,-179.13,80.64,148.70,0.625,0.735,-0.201,-0.169
825521.000000,0.002,0.959,-0.158,0.01,-0.01,-0.05,12.83,-16.68,-5.96,-179.13,80.64,148.71,0.625,0.735,-0.201,-0.169
825531.000000,0.002,0.958,-0.160,-0.07,0.07,0.01,13.17,-17.00,-5.79,-179.13,80.64,148.70,0.625,0.735,-0.201,-0.169
825541.000000,0.003,0.958,-0.153,-0.01,0.01,0.05,12.83,-16.88,-6.04,-179.12,80.64,148.70,0.625,0.735,-0.201,-0.169
825551.000000,0.003,0.962,-0.158,-0.03,0.01,0.03,12.75,-16.46,-5.71,-179.12,80.64,148.70,0.625,0.735,-0.201,-0.169
825561.000000,0.003,0.960,-0.158,0.05,0.16,-0.03,13.06,-16.54,-5.71,-179.12,80.64,148.70,0.625,0.735,-0.201,-0.169
825571.000000,0.001,0.959,-0.163,0.01,0.03,-0.01,13.58,-15.50,-5.75,-179.12,80.64,148.70,0.625,0.735,-0.201,-0.169
825581.000000,0.002,0.959,-0.155,0.01,0.03,-0.09,13.63,-15.58,-5.54,-179.12,80.64,148.70,0.625,0.735,-0.201,-0.169
825591.000000,-0.000,0.959,-0.156,-0.01,0.07,0.03,13.52,-15.58,-5.67,-179.12,80.64,148.70,0.625,0.735,-0.201,-0.169
825601.000000,0.002,0.958,-0.162,-0.03,-0.01,0.05,13.75,-15.85,-5.42,-179.12,80.64,148.70,0.625,0.735,-0.201,-0.169
825611.000000,0.005,0.958,-0.163,0.01,-0.11,-0.01,13.35,-15.58,-5.33,-179.12,80.64,148.70,0.625,0.735,-0.201,-0.169
825621.000000,0.007,0.959,-0.159,0.07,0.05,-0.03,13.21,-15.96,-5.67,-179.12,80.64,148.70,0.625,0.735,-0.201,-0.169
825631.000000,0.003,0.958,-0.154,-0.01,0.03,0.05,13.25,-16.27,-5.50,-179.12,80.64,148.70,0.625,0.735,-0.201,-0.169
825641.000000,0.001,0.956,-0.159,0.07,-0.13,0.03,12.89,-15.81,-5.79,-179.12,80.64,148.69,0.625,0.735,-0.201,-0.169
825651.000000,0.003,0.959,-0.160,0.01,-0.03,-0.01,12.67,-16.04,-5.63,-179.12,80.64,148.69,0.625,0.735,-0.201,-0.169
825661.000000,0.003,0.958,-0.162,-0.07,-0.07,-0.05,13.29,-16.31,-5.54,-179.12,80.64,148.70,0.625,0.735,-0.201,-0.169
825671.000000,0.001,0.959,-0.160,-0.05,0.01,0.08,12.89,-14.77,-5.71,-179.12,80.64,148.70,0.625,0.735,-0.201,-0.169
825681.000000,0.003,0.958,-0.158,-0.01,-0.01,-0.07,13.06,-14.93,-5.67,-179.12,80.64,148.70,0.625,0.735,-0.201,-0.169
825691.000000,0.002,0.956,-0.158,0.01,0.09,-0.03,13.25,-14.54,-5.92,-179.12,80.64,148.70,0.625,0.735,-0.201,-0.169
825701.000000,0.001,0.958,-0.160,0.03,-0.19,0.01,13.48,-14.08,-5.75,-179.12,80.64,148.70,0.625,0.735,-0.201,-0.169
825711.000000,-0.000,0.960,-0.158,0.03,0.03,0.03,13.43,-14.77,-6.00,-179.12,80.64,148.70,0.625,0.735,-0.201,-0.169
825721.000000,0.003,0.956,-0.158,-0.01,-0.07,0.01,13.67,-15.67,-5.83,-179.12,80.64,148.70,0.625,0.735,-0.201,-0.169
825731.000000,0.001,0.956,-0.159,-0.05,0.01,0.03,13.75,-15.50,-5.58,-179.12,80.64,148.70,0.625,0.735,-0.201,-0.169
825741.000000,0.003,0.959,-0.158,-0.07,0.07,-0.07,13.89,-15.85,-5.33,-179.12,80.64,148.70,0.625,0.735,-0.201,-0.169
825751.000000,0.003,0.958,-0.154,-0.05,0.01,0.06,13.89,-15.39,-5.46,-179.12,80.64,148.70,0.625,0.735,-0.201,-0.169
825761.000000,0.001,0.956,-0.154,0.03,0.01,-0.03,13.63,-15.50,-5.67,-179.12,80.64,148.70,0.625,0.735,-0.201,-0.169
825771.000000,0.002,0.958,-0.158,0.09,0.12,0.07,13.52,-15.27,-5.79,-179.12,80.64,148.70,0.625,0.735,-0.201,-0.169
825781.000000,0.003,0.959,-0.158,-0.01,0.09,-0.13,13.71,-15.67,-5.96,-179.12,80.64,148.70,0.625,0.735,-0.201,-0.169
825791.000000,0.002,0.959,-0.159,0.01,0.14,0.01,13.67,-15.96,-5.79,-179.12,80.64,148.70,0.625,0.735,-0.201,-0.169
825801.000000,0.002,0.958,-0.154,0.03,-0.07,-0.11,13.93,-15.58,-6.17,-179.12,80.64,148.70,0.625,0.735,-0.201,-0.169
825811.000000,0.003,0.958,-0.159,0.09,-0.01,0.01,13.63,-15.81,-5.67,-179.12,80.64,148.70,0.625,0.735,-0.201,-0.169
825821.000000,0.002,0.959,-0.160,0.01,0.01,0.03,13.67,-15.54,-5.88,-179.12,80.64,148.70,0.625,0.735,-0.201,-0.169
825831.000000,0.003,0.962,-0.158,-0.03,0.09,0.06,13.43,-16.08,-5.17,-179.12,80.64,148.69,0.625,0.735,-0.201,-0.169
825841.000000,0.002,0.958,-0.155,0.07,-0.07,0.01,13.71,-15.89,-5.50,-179.12,80.64,148.69,0.625,0.735,-0.201,-0.169
825851.000000,0.005,0.955,-0.156,0.03,0.03,0.05,13.58,-15.81,-5.29,-179.12,80.64,148.69,0.625,0.735,-0.201,-0.169
825861.000000,0.003,0.956,-0.155,0.03,0.07,-0.05,13.67,-15.46,-5.21,-179.12,80.64,148.69,0.625,0.735,-0.201,-0.169
825871.000000,0.003,0.959,-0.160,0.01,-0.05,0.05,13.48,-15.67,-5.71,-179.12,80.64,148.69,0.625,0.735,-0.201,-0.169
825881.000000,0.002,0.959,-0.154,-0.03,0.05,0.06,13.39,-15.54,-5.46,-179.12,80.64,148.69,0.625,0.735,-0.201,-0.169
825891.000000,0.005,0.959,-0.154,-0.07,-0.03,0.01,13.35,-15.85,-5.54,-179.12,80.64,148.69,0.625,0.735,-0.201,-0.169
825901.000000,0.002,0.958,-0.156,-0.07,0.18,0.01,13.39,-15.96,-5.75,-179.12,80.64,148.69,0.625,0.735,-0.201,-0.169
825911.000000,0.002,0.959,-0.158,0.09,0.05,-0.03,13.29,-15.63,-5.75,-179.11,80.64,148.69,0.625,0.735,-0.201,-0.169
825921.000000,0.003,0.959,-0.163,0.07,-0.19,-0.01,13.98,-15.35,-5.67,-179.12,80.64,148.69,0.625,0.735,-0.201,-0.169
825931.000000,0.003,0.956,-0.159,0.07,0.09,0.03,14.27,-15.17,-5.75,-179.12,80.64,148.69,0.625,0.735,-0.201,-0.169
825941.000000,0.001,0.956,-0.158,0.11,0.03,0.01,14.50,-15.39,-5.54,-179.12,80.64,148.69,0.625,0.735,-0.201,-0.169
825951.000000,-0.000,0.955,-0.155,-0.03,0.12,-0.03,14.35,-15.63,-5.83,-179.12,80.64,148.69,0.625,0.735,-0.201,-0.169
825961.000000,-0.001,0.959,-0.162,0.01,-0.01,0.03,14.39,-15.63,-5.96,-179.12,80.64,148.69,0.625,0.735,-0.201,-0.169
825971.000000,0.002,0.960,-0.159,-0.05,0.09,0.06,13.81,-15.27,-5.71,-179.12,80.64,148.70,0.625,0.735,-0.201,-0.169
825981.000000,0.001,0.958,-0.156,0.01,0.03,-0.01,13.39,-15.17,-5.71,-179.12,80.64,148.70,0.625,0.735,-0.201,-0.169
825991.000000,0.001,0.962,-0.160,-0.03,0.03,0.01,13.35,-15.39,-5.63,-179.12,80.64,148.70,0.625,0.735,-0.201,-0.169
826001.000000,0.003,0.956,-0.163,-0.01,-0.09,-0.03,13.93,-15.39,-6.08,-179.12,80.64,148.70,0.625,0.735,-0.201,-0.169
826011.000000,0.002,0.960,-0.160,0.01,-0.05,-0.01,13.85,-15.67,-5.71,-179.12,80.64,148.70,0.625,0.735,-0.201,-0.169
826021.000000,0.003,0.956,-0.159,-0.07,-0.09,-0.05,12.98,-15.54,-5.54,-179.12,80.64,148.70,0.625,0.735,-0.201,-0.169
826031.000000,0.003,0.959,-0.160,-0.03,0.01,0.01,13.48,-15.50,-5.58,-179.12,80.64,148.70,0.625,0.735,-0.201,-0.169
826041.000000,0.002,0.958,-0.158,0.03,-0.03,0.05,13.17,-15.73,-5.54,-179.12,80.64,148.70,0.625,0.735,-0.201,-0.169
826051.000000,0.002,0.960,-0.163,-0.05,0.14,-0.01,13.17,-15.13,-5.54,-179.13,80.64,148.70,0.625,0.735,-0.201,-0.169
826061.000000,0.002,0.955,-0.158,-0.01,-0.01,0.01,13.29,-15.17,-5.67,-179.13,80.64,148.70,0.625,0.735,-0.201,-0.169
826071.000000,0.003,0.958,-0.159,0.05,0.03,-0.01,13.71,-16.27,-5.79,-179.13,80.64,148.70,0.625,0.735,-0.201,-0.169
826081.000000,0.002,0.959,-0.155,0.01,-0.01,-0.05,14.27,-16.18,-5.75,-179.13,80.64,148.70,0.625,0.735,-0.201,-0.169
826091.000000,0.003,0.960,-0.160,0.01,-0.03,0.03,13.93,-16.50,-5.67,-179.13,80.64,148.70,0.625,0.735,-0.201,-0.169
826101.000000,0.002,0.959,-0.159,0.03,0.26,-0.03,13.48,-16.64,-5.83,-179.13,80.64,148.70,0.625,0.735,-0.201,-0.169
826111.000000,0.005,0.959,-0.159,0.03,-0.05,-0.03,13.67,-16.00,-5.50,-179.13,80.64,148.70,0.625,0.735,-0.201,-0.169
826121.000000,0.005,0.959,-0.155,0.13,0.01,0.05,12.93,-16.42,-5.83,-179.13,80.64,148.70,0.625,0.735,-0.201,-0.169
826131.000000,0.002,0.958,-0.155,-0.01,-0.05,-0.01,12.56,-16.35,-5.75,-179.12,80.64,148.70,0.625,0.735,-0.201,-0.169
826141.000000,0.002,0.955,-0.156,0.01,0.03,-0.03,13.06,-16.23,-5.71,-179.12,80.64,148.70,0.625,0.735,-0.201,-0.169
826151.000000,0.005,0.959,-0.155,-0.07,-0.03,0.03,13.06,-16.50,-5.83,-179.12,80.64,148.70,0.625,0.735,-0.201,-0.169
826161.000000,0.005,0.959,-0.158,0.09,0.12,-0.01,13.43,-15.81,-5.88,-179.12,80.64,148.70,0.625,0.735,-0.201,-0.169
826171.000000,0.002,0.959,-0.159,-0.05,0.05,0.06,12.98,-16.00,-5.75,-179.12,80.64,148.70,0.625,0.735,-0.201,-0.169
826181.000000,0.003,0.958,-0.159,0.03,-0.09,-0.17,13.39,-15.81,-5.96,-179.12,80.64,148.69,0.625,0.735,-0.201,-0.169
826191.000000,0.001,0.958,-0.160,-0.05,-0.05,-0.05,13.13,-15.89,-5.54,-179.12,80.64,148.69,0.625,0.735,-0.201,-0.169
826201.000000,0.001,0.956,-0.156,0.05,0.20,0.01,13.89,-16.00,-5.75,-179.12,80.64,148.70,0.625,0.735,-0.201,-0.169
826211.000000,0.003,0.955,-0.154,-0.01,-0.05,0.01,13.06,-15.63,-5.88,-179.12,80.64,148.70,0.625,0.735,-0.201,-0.169
826221.000000,-0.001,0.959,-0.160,-0.01,0.09,0.03,13.39,-15.73,-5.67,-179.12,80.64,148.70,0.625,0.735,-0.201,-0.169
826231.000000,0.002,0.959,-0.158,-0.03,-0.03,0.01,13.85,-15.96,-5.58,-179.12,80.64,148.70,0.625,0.735,-0.201,-0.169
826241.000000,0.001,0.959,-0.158,0.01,0.07,0.01,13.52,-16.04,-5.63,-179.12,80.64,148.70,0.625,0.735,-0.201,-0.169
826251.000000,0.002,0.959,-0.154,-0.01,0.01,0.03,13.35,-15.85,-5.88,-179.12,80.64,148.70,0.625,0.735,-0.201,-0.169
826261.000000,0.002,0.956,-0.159,-0.09,0.12,-0.01,13.29,-15.67,-5.54,-179.12,80.64,148.70,0.625,0.735,-0.201,-0.169
826271.000000,-0.000,0.955,-0.155,-0.01,-0.01,-0.03,14.54,-15.63,-5.67,-179.12,80.64,148.70,0.625,0.735,-0.201,-0.169
826281.000000,0.003,0.958,-0.158,-0.07,0.09,0.01,14.54,-15.96,-5.29,-179.12,80.64,148.70,0.625,0.735,-0.201,-0.169
826291.000000,0.005,0.960,-0.162,0.03,-0.09,-0.01,14.77,-15.85,-5.42,-179.12,80.64,148.70,0.625,0.735,-0.201,-0.169
826302.000000,0.002,0.956,-0.153,0.01,0.09,-0.05,14.50,-16.23,-5.54,-179.12,80.64,148.70,0.625,0.735,-0.201,-0.169
826311.000000,0.001,0.956,-0.158,0.11,-0.01,0.07,14.35,-15.96,-5.58,-179.12,80.64,148.70,0.625,0.735,-0.201,-0.169
826322.000000,0.005,0.959,-0.160,0.01,0.05,0.01,13.75,-15.63,-5.71,-179.12,80.64,148.70,0.625,0.735,-0.201,-0.169
826332.000000,-0.001,0.956,-0.159,-0.01,-0.03,-0.11,13.35,-15.54,-5.54,-179.12,80.64,148.70,0.625,0.735,-0.201,-0.169
826342.000000,-0.003,0.956,-0.159,0.01,-0.01,-0.03,13.67,-15.73,-5.58,-179.12,80.64,148.70,0.625,0.735,-0.201,-0.169
826352.000000,0.002,0.958,-0.162,-0.01,-0.03,0.03,13.39,-15.89,-5.67,-179.13,80.64,148.70,0.625,0.735,-0.201,-0.169
826362.000000,0.001,0.958,-0.158,0.01,0.05,0.01,13.71,-15.63,-5.58,-179.13,80.64,148.70,0.625,0.735,-0.201,-0.169
826372.000000,0.003,0.956,-0.158,0.09,0.01,-0.01,14.43,-15.58,-5.88,-179.13,80.64,148.70,0.625,0.735,-0.201,-0.169
826382.000000,0.002,0.956,-0.156,-0.01,-0.07,-0.03,14.13,-15.89,-5.67,-179.13,80.64,148.70,0.625,0.735,-0.201,-0.169
826392.000000,0.001,0.958,-0.156,-0.03,-0.01,0.05,14.13,-15.89,-5.96,-179.12,80.64,148.70,0.625,0.735,-0.201,-0.169
826402.000000,0.002,0.958,-0.159,0.03,0.05,0.03,14.13,-15.77,-5.54,-179.12,80.64,148.70,0.625,0.735,-0.201,-0.169
826412.000000,0.001,0.960,-0.156,-0.09,0.07,-0.01,14.21,-15.96,-5.58,-179.13,80.64,148.70,0.625,0.735,-0.201,-0.169
826422.000000,0.001,0.956,-0.158,0.03,0.01,0.03,13.06,-16.13,-6.00,-179.13,80.64,148.70,0.625,0.735,-0.201,-0.169
826432.000000,0.002,0.960,-0.155,-0.01,0.09,0.01,12.93,-15.73,-5.79,-179.13,80.64,148.70,0.625,0.735,-0.201,-0.169
826442.000000,0.003,0.959,-0.154,0.13,0.01,-0.01,12.83,-16.13,-5.38,-179.13,80.64,148.70,0.625,0.735,-0.201,-0.169
826452.000000,0.003,0.959,-0.156,0.03,0.12,-0.03,12.48,-15.96,-5.79,-179.13,80.64,148.70,0.625,0.735,-0.201,-0.169
826462.000000,0.001,0.955,-0.156,0.01,0.01,-0.01,12.93,-16.27,-5.79,-179.12,80.64,148.70,0.625,0.735,-0.201,-0.169
826472.000000,0.003,0.960,-0.162,-0.07,-0.07,-0.01,13.35,-15.13,-5.92,-179.12,80.64,148.70,0.625,0.735,-0.201,-0.169
826482.000000,0.001,0.958,-0.159,0.05,0.03,0.03,13.63,-15.04,-5.96,-179.12,80.64,148.70,0.625,0.735,-0.201,-0.169
826492.000000,0.002,0.955,-0.160,0.01,-0.09,-0.01,13.25,-14.93,-5.50,-179.12,80.64,148.70,0.625,0.735,-0.201,-0.169
826502.000000,0.001,0.958,-0.156,0.05,-0.01,-0.01,13.17,-14.93,-5.33,-179.12,80.64,148.70,0.625,0.735,-0.201,-0.169
826512.000000,0.003,0.956,-0.162,0.01,0.01,0.01,13.35,-14.77,-5.83,-179.12,80.64,148.70,0.625,0.735,-0.201,-0.169
826522.000000,0.001,0.959,-0.163,-0.05,0.03,-0.03,12.98,-15.58,-6.00,-179.12,80.64,148.70,0.625,0.735,-0.201,-0.169
826532.000000,0.002,0.958,-0.159,-0.01,-0.01,0.03,12.89,-15.50,-5.50,-179.12,80.64,148.70,0.625,0.735,-0.201,-0.169
826542.000000,0.002,0.958,-0.159,-0.01,-0.07,0.01,12.52,-15.46,-5.83,-179.12,80.64,148.70,0.625,0.735,-0.201,-0.169
826552.000000,0.002,0.959,-0.158,0.11,0.09,-0.03,12.89,-15.39,-5.54,-179.12,80.64,148.70,0.625,0.735,-0.201,-0.169
826562.000000,0.002,0.959,-0.155,0.07,-0.01,0.03,12.60,-15.31,-5.67,-179.12,80.64,148.70,0.625,0.735,-0.201,-0.169
826572.000000,0.003,0.956,-0.156,0.07,-0.01,-0.11,12.33,-15.58,-5.75,-179.12,80.64,148.70,0.625,0.735,-0.201,-0.169
826582.000000,0.005,0.962,-0.156,0.07,-0.07,0.03,12.02,-15.67,-5.75,-179.12,80.64,148.70,0.625,0.735,-0.201,-0.169
826592.000000,0.002,0.958,-0.159,-0.01,0.01,0.01,11.83,-15.67,-5.63,-179.12,80.64,148.70,0.625,0.735,-0.201,-0.169
826602.000000,0.003,0.960,-0.162,0.07,0.05,0.07,12.48,-15.81,-5.96,-179.12,80.64,148.70,0.625,0.735,-0.201,-0.169
826612.000000,0.006,0.959,-0.162,-0.05,0.09,-0.09,12.52,-15.35,-5.92,-179.12,80.64,148.70,0.625,0.735,-0.201,-0.169
826622.000000,-0.002,0.956,-0.156,-0.01,0.03,0.18,12.56,-16.42,-6.04,-179.12,80.64,148.70,0.625,0.735,-0.201,-0.169
826632.000000,0.001,0.956,-0.156,-0.07,0.07,0.01,12.71,-16.58,-5.83,-179.12,80.64,148.70,0.625,0.735,-0.201,-0.169
826642.000000,0.002,0.958,-0.156,0.03,-0.05,-0.07,12.38,-16.35,-5.96,-179.12,80.64,148.70,0.625,0.735,-0.201,-0.169
826652.000000,0.001,0.958,-0.159,-0.01,0.05,-0.01,12.48,-16.58,-6.21,-179.12,80.64,148.70,0.625,0.735,-0.201,-0.169
826662.000000,0.005,0.956,-0.154,0.07,0.09,0.03,12.38,-16.35,-5.96,-179.12,80.64,148.70,0.625,0.735,-0.201,-0.169
826672.000000,0.002,0.959,-0.155,-0.03,-0.11,-0.03,13.21,-16.31,-5.63,-179.13,80.64,148.70,0.625,0.735,-0.201,-0.169
826682.000000,0.003,0.959,-0.156,-0.01,-0.03,-0.03,13.29,-16.31,-5.92,-179.12,80.64,148.70,0.625,0.735,-0.201,-0.169
826692.000000,0.001,0.958,-0.156,0.07,0.07,0.03,13.48,-16.42,-5.79,-179.12,80.64,148.70,0.625,0.735,-0.201,-0.169
826702.000000,-0.000,0.960,-0.151,0.01,-0.01,0.05,13.06,-16.46,-5.63,-179.12,80.64,148.70,0.625,0.735,-0.201,-0.169
826712.000000,0.005,0.959,-0.156,0.03,0.18,-0.01,13.52,-16.00,-5.88,-179.12,80.64,148.70,0.625,0.735,-0.201,-0.169
826722.000000,0.005,0.962,-0.158,-0.03,0.01,-0.07,14.04,-16.50,-5.71,-179.13,80.64,148.70,0.625,0.735,-0.201,-0.169
826732.000000,0.002,0.958,-0.160,0.03,-0.01,0.07,13.85,-16.31,-5.63,-179.12,80.64,148.70,0.625,0.735,-0.201,-0.169
826742.000000,0.001,0.958,-0.158,0.01,-0.11,-0.03,13.85,-16.54,-5.71,-179.12,80.64,148.70,0.625,0.735,-0.201,-0.169
826752.000000,0.005,0.962,-0.159,0.01,0.07,0.05,13.81,-16.46,-5.92,-179.12,80.64,148.70,0.625,0.735,-0.201,-0.169
826762.000000,0.002,0.960,-0.155,0.05,0.12,-0.01,13.81,-16.77,-5.54,-179.12,80.64,148.70,0.625,0.735,-0.201,-0.169
826772.000000,0.002,0.959,-0.156,0.05,-0.07,-0.03,13.63,-15.50,-5.67,-179.12,80.64,148.70,0.625,0.735,-0.201,-0.169
826782.000000,0.003,0.956,-0.156,0.01,0.07,0.05,13.81,-15.85,-5.83,-179.12,80.64,148.70,0.625,0.735,-0.201,-0.169
826792.000000,0.002,0.960,-0.156,0.03,-0.01,-0.05,13.98,-16.13,-5.63,-179.12,80.64,148.70,0.625,0.735,-0.201,-0.169
826802.000000,0.003,0.959,-0.159,0.03,-0.07,0.05,13.52,-16.00,-5.88,-179.12,80.64,148.70,0.625,0.735,-0.201,-0.169
826812.000000,0.003,0.960,-0.156,0.05,0.09,0.03,13.81,-15.89,-5.50,-179.12,80.64,148.70,0.625,0.735,-0.201,-0.169
826822.000000,0.001,0.960,-0.159,0.07,-0.01,-0.03,12.83,-15.54,-5.83,-179.12,80.64,148.70,0.625,0.735,-0.201,-0.169
826832.000000,0.003,0.959,-0.158,-0.05,-0.01,-0.01,13.21,-15.35,-5.67,-179.12,80.64,148.70,0.625,0.735,-0.201,-0.169
826842.000000,0.002,0.958,-0.158,0.05,0.05,-0.03,12.93,-15.85,-5.50,-179.12,80.64,148.70,0.625,0.735,-0.201,-0.169
826852.000000,0.002,0.959,-0.156,-0.01,-0.09,0.01,12.93,-15.58,-5.63,-179.12,80.64,148.70,0.625,0.735,-0.201,-0.169
826862.000000,0.003,0.958,-0.160,0.05,-0.03,-0.05,12.89,-15.46,-5.83,-179.12,80.64,148.70,0.625,0.735,-0.201,-0.169
826872.000000,0.003,0.958,-0.158,0.07,0.14,0.05,12.89,-15.46,-5.83,-179.12,80.64,148.70,0.625,0.735,-0.201,-0.169
826882.000000,0.005,0.959,-0.159,0.05,-0.03,-0.05,14.13,-15.31,-5.79,-179.12,80.64,148.70,0.625,0.735,-0.201,-0.169
826892.000000,-0.000,0.956,-0.158,-0.03,-0.07,-0.01,13.89,-14.93,-5.79,-179.12,80.64,148.70,0.625,0.735,-0.201,-0.169
826902.000000,0.001,0.962,-0.158,0.01,0.03,0.08,13.71,-15.50,-5.96,-179.12,80.64,148.69,0.625,0.735,-0.201,-0.169
826912.000000,0.005,0.956,-0.158,-0.01,-0.03,-0.05,14.08,-15.23,-5.92,-179.12,80.64,148.70,0.625,0.735,-0.201,-0.169
826922.000000,0.003,0.959,-0.163,-0.03,0.07,-0.05,14.08,-15.23,-5.92,-179.12,80.64,148.70,0.625,0.735,-0.201,-0.169
826932.000000,0.001,0.958,-0.155,0.07,0.12,-0.03,12.98,-16.54,-5.71,-179.12,80.64,148.69,0.625,0.735,-0.201,-0.169
826942.000000,0.002,0.956,-0.158,0.03,0.01,-0.09,12.67,-16.64,-6.08,-179.12,80.64,148.69,0.625,0.735,-0.201,-0.169
826952.000000,0.001,0.958,-0.155,-0.01,0.07,0.05,12.93,-16.81,-6.08,-179.12,80.64,148.69,0.625,0.735,-0.201,-0.169
826962.000000,0.005,0.959,-0.159,0.01,-0.07,0.01,13.06,-16.88,-6.00,-179.12,80.64,148.69,0.625,0.735,-0.201,-0.169
826972.000000,0.005,0.958,-0.155,0.09,-0.13,-0.05,13.06,-16.88,-6.00,-179.12,80.64,148.69,0.625,0.735,-0.201,-0.169
826982.000000,-0.000,0.960,-0.156,0.05,0.05,0.07,13.48,-16.18,-5.92,-179.12,80.64,148.69,0.625,0.735,-0.201,-0.169
826992.000000,0.002,0.959,-0.160,-0.03,-0.01,-0.05,13.67,-16.23,-5.75,-179.12,80.64,148.69,0.625,0.735,-0.201,-0.169
827002.000000,0.003,0.960,-0.156,-0.09,0.07,-0.05,13.48,-16.42,-5.88,-179.12,80.64,148.69,0.625,0.735,-0.201,-0.169
827012.000000,0.003,0.958,-0.158,0.07,0.14,-0.01,13.06,-16.08,-6.21,-179.12,80.64,148.69,0.625,0.735,-0.201,-0.169
827022.000000,0.002,0.959,-0.158,-0.03,0.03,-0.05,13.06,-16.08,-6.21,-179.12,80.64,148.69,0.625,0.735,-0.201,-0.169
827032.000000,-0.000,0.960,-0.155,-0.01,-0.07,0.08,13.43,-16.31,-5.92,-179.12,80.64,148.69,0.625,0.735,-0.201,-0.169
827042.000000,0.003,0.958,-0.160,-0.09,0.01,0.01,12.89,-16.35,-6.00,-179.12,80.64,148.70,0.625,0.735,-0.201,-0.169
827052.000000,0.001,0.960,-0.160,0.01,-0.05,-0.05,13.02,-16.35,-5.96,-179.12,80.64,148.70,0.625,0.735,-0.201,-0.169
827062.000000,-0.000,0.958,-0.158,-0.09,0.03,0.04,13.17,-16.18,-5.75,-179.12,80.64,148.70,0.625,0.735,-0.201,-0.169
827072.000000,0.002,0.960,-0.156,0.03,0.09,0.08,13.17,-16.18,-5.75,-179.13,80.64,148.70,0.625,0.735,-0.201,-0.169
827082.000000,0.002,0.959,-0.156,0.13,0.07,-0.01,13.21,-15.54,-6.17,-179.13,80.64,148.70,0.625,0.735,-0.201,-0.169
827092.000000,0.003,0.960,-0.163,0.01,-0.11,0.01,13.52,-15.46,-5.83,-179.13,80.64,148.70,0.625,0.735,-0.201,-0.169
827102.000000,0.003,0.959,-0.160,0.03,0.03,-0.07,13.58,-15.27,-6.08,-179.13,80.64,148.70,0.625,0.735,-0.201,-0.169
827112.000000,0.002,0.956,-0.159,0.07,-0.05,0.07,13.35,-15.58,-6.04,-179.13,80.64,148.70,0.625,0.735,-0.201,-0.169
827122.000000,0.002,0.959,-0.156,-0.01,-0.05,-0.01,13.35,-15.58,-6.04,-179.13,80.64,148.70,0.625,0.735,-0.201,-0.169
827132.000000,0.002,0.955,-0.160,-0.03,0.09,0.01,12.33,-16.08,-5.79,-179.13,80.64,148.70,0.625,0.735,-0.201,-0.169
827142.000000,0.002,0.959,-0.158,0.03,-0.03,-0.01,12.75,-16.08,-5.88,-179.13,80.64,148.71,0.625,0.735,-0.201,-0.169
827152.000000,0.002,0.956,-0.159,0.01,0.07,0.03,12.98,-15.96,-5.75,-179.13,80.64,148.71,0.625,0.735,-0.201,-0.169
827162.000000,0.005,0.955,-0.158,0.03,0.01,0.01,12.60,-16.54,-5.75,-179.13,80.64,148.70,0.625,0.735,-0.201,-0.169
827172.000000,0.002,0.959,-0.158,-0.05,0.05,0.08,12.60,-16.54,-5.75,-179.13,80.64,148.71,0.625,0.735,-0.201,-0.169
827182.000000,0.002,0.959,-0.155,0.01,0.01,-0.01,13.39,-15.27,-5.79,-179.13,80.64,148.70,0.625,0.735,-0.201,-0.169
827192.000000,0.002,0.958,-0.160,0.07,0.14,0.01,13.39,-15.13,-5.54,-179.13,80.64,148.70,0.625,0.735,-0.201,-0.169
827202.000000,0.005,0.959,-0.159,-0.11,-0.01,-0.05,13.43,-14.89,-5.88,-179.13,80.64,148.70,0.625,0.735,-0.201,-0.169
827212.000000,0.001,0.959,-0.158,0.07,0.03,0.01,13.43,-14.89,-5.88,-179.13,80.64,148.70,0.625,0.735,-0.201,-0.169
827222.000000,0.002,0.958,-0.159,0.03,-0.11,-0.05,13.43,-14.89,-5.88,-179.13,80.64,148.70,0.625,0.735,-0.201,-0.169
827232.000000,0.003,0.959,-0.160,-0.01,0.14,0.05,13.35,-15.39,-5.63,-179.13,80.64,148.70,0.625,0.735,-0.201,-0.169
827242.000000,0.002,0.959,-0.158,0.11,0.01,-0.01,13.35,-15.39,-5.63,-179.13,80.64,148.70,0.625,0.735,-0.201,-0.169
827252.000000,0.002,0.960,-0.158,0.03,0.05,-0.05,13.35,-15.39,-5.63,-179.13,80.64,148.70,0.625,0.735,-0.201,-0.169
827262.000000,0.002,0.959,-0.155,0.05,-0.03,-0.01,13.63,-15.39,-5.79,-179.13,80.64,148.70,0.625,0.735,-0.201,-0.169
827272.000000,0.001,0.959,-0.158,-0.05,-0.01,0.03,13.52,-15.77,-5.75,-179.12,80.64,148.70,0.625,0.735,-0.201,-0.169
827282.000000,0.001,0.959,-0.158,-0.03,0.09,0.08,13.39,-14.71,-5.92,-179.12,80.64,148.70,0.625,0.735,-0.201,-0.169
827292.000000,-0.000,0.959,-0.158,-0.13,0.07,0.08,13.21,-14.67,-5.50,-179.12,80.64,148.70,0.625,0.735,-0.201,-0.169
827302.000000,0.002,0.959,-0.155,0.03,-0.09,-0.05,13.29,-14.54,-5.75,-179.12,80.64,148.70,0.625,0.735,-0.201,-0.169
827312.000000,0.001,0.956,-0.155,-0.01,0.12,-0.01,13.43,-14.77,-5.58,-179.13,80.64,148.70,0.625,0.735,-0.201,-0.169
827322.000000,0.005,0.958,-0.158,0.01,0.12,0.05,13.48,-14.63,-5.29,-179.13,80.64,148.70,0.625,0.735,-0.201,-0.169
827332.000000,0.003,0.958,-0.155,0.07,-0.07,-0.01,13.98,-15.73,-5.75,-179.13,80.64,148.70,0.625,0.735,-0.201,-0.169
827342.000000,0.002,0.958,-0.160,0.05,0.09,-0.07,14.21,-15.81,-5.79,-179.13,80.64,148.70,0.625,0.735,-0.201,-0.169
827352.000000,0.003,0.960,-0.162,0.03,0.07,0.07,14.08,-15.96,-5.67,-179.12,80.64,148.70,0.625,0.735,-0.201,-0.169
827362.000000,-0.000,0.956,-0.155,0.03,-0.03,-0.01,13.98,-15.77,-5.71,-179.12,80.64,148.70,0.625,0.735,-0.201,-0.169
827372.000000,0.002,0.958,-0.159,0.01,0.16,-0.07,14.04,-15.67,-5.75,-179.12,80.64,148.70,0.625,0.735,-0.201,-0.169
827382.000000,-0.000,0.955,-0.156,-0.09,0.07,-0.03,14.17,-15.77,-5.79,-179.12,80.65,148.70,0.625,0.735,-0.201,-0.169
827392.000000,0.002,0.959,-0.160,-0.01,-0.01,-0.03,14.35,-15.63,-5.63,-179.13,80.64,148.70,0.625,0.735,-0.201,-0.169
827402.000000,0.002,0.959,-0.156,0.05,-0.03,0.05,14.04,-15.81,-5.79,-179.13,80.65,148.70,0.625,0.735,-0.201,-0.169
827412.000000,0.001,0.959,-0.160,-0.07,-0.01,-0.03,14.04,-15.63,-5.58,-179.13,80.64,148.70,0.625,0.735,-0.201,-0.169
827422.000000,-0.000,0.959,-0.156,0.03,0.03,-0.03,14.21,-15.63,-5.46,-179.13,80.65,148.70,0.625,0.735,-0.201,-0.169
827432.000000,0.001,0.956,-0.155,0.03,0.05,0.05,14.58,-16.00,-5.79,-179.13,80.64,148.70,0.625,0.735,-0.201,-0.169
827442.000000,0.002,0.960,-0.159,0.05,-0.01,-0.01,14.81,-16.08,-6.00,-179.13,80.65,148.70,0.625,0.735,-0.201,-0.169
827452.000000,0.005,0.956,-0.156,0.05,0.03,0.05,14.63,-15.63,-5.92,-179.13,80.65,148.70,0.625,0.735,-0.201,-0.169
827462.000000,0.001,0.960,-0.155,0.05,0.05,-0.03,14.68,-15.77,-5.83,-179.13,80.65,148.70,0.625,0.735,-0.201,-0.169
827472.000000,0.002,0.956,-0.160,0.01,0.01,-0.09,14.50,-16.04,-5.83,-179.13,80.65,148.70,0.625,0.735,-0.201,-0.169
827482.000000,0.005,0.959,-0.160,-0.03,-0.03,-0.09,13.43,-15.23,-5.79,-179.13,80.65,148.70,0.625,0.735,-0.201,-0.169
827492.000000,0.002,0.960,-0.156,-0.01,0.03,-0.01,13.13,-15.31,-6.08,-179.13,80.65,148.71,0.625,0.735,-0.201,-0.169
827502.000000,0.001,0.956,-0.159,-0.03,0.01,0.03,13.02,-15.13,-5.79,-179.13,80.65,148.70,0.625,0.735,-0.201,-0.169
827512.000000,0.003,0.958,-0.159,0.05,-0.09,-0.01,13.02,-15.17,-5.67,-179.13,80.65,148.70,0.625,0.735,-0.201,-0.169
827522.000000,0.002,0.958,-0.156,-0.03,0.07,-0.03,13.35,-15.00,-5.33,-179.13,80.65,148.71,0.625,0.735,-0.201,-0.169
827532.000000,0.005,0.960,-0.160,0.13,0.09,0.07,12.67,-15.39,-5.83,-179.13,80.65,148.71,0.625,0.735,-0.201,-0.169
827542.000000,0.001,0.958,-0.155,-0.03,-0.01,0.03,13.25,-15.35,-5.50,-179.13,80.65,148.71,0.625,0.735,-0.201,-0.169
827552.000000,0.003,0.956,-0.156,-0.01,0.05,-0.11,13.13,-15.67,-5.71,-179.13,80.65,148.71,0.625,0.735,-0.201,-0.169
827562.000000,-0.000,0.958,-0.158,-0.01,-0.03,0.01,12.89,-15.54,-6.25,-179.13,80.65,148.71,0.625,0.735,-0.201,-0.169
827572.000000,0.001,0.959,-0.159,-0.07,0.16,-0.05,12.93,-15.17,-5.63,-179.13,80.65,148.70,0.625,0.735,-0.201,-0.169
827582.000000,0.006,0.960,-0.155,-0.05,0.07,-0.09,13.06,-15.67,-5.75,-179.13,80.65,148.71,0.625,0.735,-0.201,-0.169
827592.000000,0.003,0.962,-0.159,0.03,0.03,0.14,12.83,-15.50,-5.67,-179.13,80.65,148.71,0.625,0.735,-0.201,-0.169
827602.000000,0.006,0.958,-0.156,0.05,0.03,-0.07,12.98,-15.81,-5.79,-179.13,80.65,148.71,0.625,0.735,-0.201,-0.169
827612.000000,0.002,0.958,-0.159,-0.01,0.09,0.03,12.48,-15.67,-5.79,-179.13,80.65,148.71,0.625,0.735,-0.201,-0.169
827622.000000,0.002,0.959,-0.158,-0.01,0.01,-0.03,13.13,-15.85,-6.00,-179.13,80.65,148.70,0.625,0.735,-0.201,-0.169
827632.000000,0.002,0.959,-0.156,0.03,0.09,0.08,13.58,-15.46,-5.96,-179.13,80.65,148.70,0.625,0.735,-0.201,-0.169
827642.000000,0.003,0.959,-0.163,-0.01,-0.11,-0.01,13.35,-15.77,-5.50,-179.13,80.65,148.70,0.625,0.735,-0.201,-0.169
